timestamp,acc_x,acc_y,acc_z,gyr_x,gyr_y,gyr_z,mag_x,mag_y,mag_z,temp,pressure,qvar
2025-07-21T11:09:40.502177,40,-45,-1007,-70,280,-70,-454,1017,2478,27.79,1012.84,0.02
2025-07-21T11:09:40.817154,38,-45,-1007,-210,280,70,-450,1020,2470,27.8,1012.79,0.02
2025-07-21T11:09:41.314008,37,-46,-1007,-140,280,70,-447,1015,2476,,,0.01
2025-07-21T11:09:41.813622,39,-44,-1009,-280,280,0,-450,1009,2473,27.79,1012.75,
2025-07-21T11:09:42.321513,37,-46,-1008,-210,350,70,-445,1021,2478,,,0.14
2025-07-21T11:09:42.821691,38,-44,-1006,-140,350,0,-444,1012,2473,27.8,,0.05
2025-07-21T11:09:43.320658,39,-43,-1008,-70,280,-70,-457,1014,2485,,1012.79,0.05
2025-07-21T11:09:43.821441,39,-43,-1006,-70,350,0,,,,27.79,,
2025-07-21T11:09:43.832950,,,,,,,-442,1018,2476,,,0.12
2025-07-21T11:09:44.330617,38,-46,-1010,-140,420,70,-453,1021,2482,,1012.86,0.12
2025-07-21T11:09:44.826132,39,-43,-1008,-140,350,0,-448,1018,2478,27.79,,0.03
2025-07-21T11:09:45.331576,36,-44,-1007,-280,280,0,-450,1032,2473,,1012.9,0.07
2025-07-21T11:09:45.832694,39,-45,-1009,-210,350,-70,-448,1032,2481,27.8,,0.05
2025-07-21T11:09:46.331550,37,-47,-1008,-140,280,0,-459,1032,2487,,1012.87,
2025-07-21T11:09:46.842134,39,-45,-1009,-280,280,70,-445,1027,2484,27.79,,0.1
2025-07-21T11:09:47.342403,38,-46,-1006,-70,280,0,-447,1018,2481,,1012.8,0.06
2025-07-21T11:09:47.840167,,,,,,,,,,27.8,,
2025-07-21T11:09:47.850915,,,,0,210,0,-459,1024,2475,,,0.1
2025-07-21T11:09:48.339598,40,-42,-1007,,,,,,,,1012.82,
2025-07-21T11:09:48.351115,,,,70,280,-70,-448,1020,2481,,,0.01
2025-07-21T11:09:48.849377,41,-44,-1006,70,210,-70,-454,1023,2475,27.8,,0.1
2025-07-21T11:09:49.348020,39,-42,-1009,-70,420,0,-444,1020,2476,,1012.82,0.1
2025-07-21T11:09:49.848345,41,-42,-1007,0,350,-70,-453,1015,2470,27.8,,0.06
2025-07-21T11:09:50.348963,38,-45,-1009,-210,350,-70,-450,1020,2481,,1012.82,0.1
2025-07-21T11:09:50.849477,40,-42,-1007,,,,,,,27.79,,
2025-07-21T11:09:50.860104,,,,-140,280,0,-448,1018,2479,,,0.01
2025-07-21T11:09:51.358591,38,-44,-1008,-210,350,0,-457,1033,2475,,1012.84,0.16
2025-07-21T11:09:51.859568,36,-38,-1012,-280,140,0,-448,1026,2473,27.8,,0.15
2025-07-21T11:09:52.358812,52,-41,-1068,5040,8680,-490,-462,973,2418,,1012.85,0.1
2025-07-21T11:09:52.861084,-9,-109,-954,-27580,-11690,24010,-415,982,-127,27.8,,0.01
2025-07-21T11:09:53.359332,51,135,-991,,,,,,,,1012.85,
2025-07-21T11:09:53.370323,,,,20930,-5530,32200,-67,6,-769,,,0.05
2025-07-21T11:09:53.860772,45,-140,-915,-13300,28910,21070,,,,27.79,,
2025-07-21T11:09:53.872499,,,,,,,9,-1,-751,,,0.01
2025-07-21T11:09:54.370026,131,-11,-959,-7490,34090,44310,172,-13,-547,,1012.79,0.07
2025-07-21T11:09:54.868320,130,-12,-997,1470,2450,53620,147,-19,-400,27.8,,0.1
2025-07-21T11:09:55.367337,,,,,,,,,,,1012.79,
2025-07-21T11:09:55.378117,67,-132,-1012,9100,16380,35700,172,114,-379,,,0.14
2025-07-21T11:09:55.876947,21,-21,-977,770,9380,60970,246,15,-465,27.79,,0.03
2025-07-21T11:09:56.377724,149,-57,-1012,-770,3360,5950,261,-19,-474,,1012.81,0.1
2025-07-21T11:09:56.876224,59,-78,-973,13300,-12880,-68180,258,-19,-493,27.79,,0.01
2025-07-21T11:09:57.377637,45,-103,-992,10990,-4900,-68180,190,-28,-492,,1012.77,0.02
2025-07-21T11:09:57.887800,24,-117,-999,-24640,19950,-71680,153,-51,-564,27.8,,0.01
2025-07-21T11:09:58.386668,-25,-2,-999,-1680,-12040,-61390,69,-96,-627,,1012.73,0.02
2025-07-21T11:09:58.886104,-119,-50,-993,-11620,-3640,-44660,55,-240,-744,27.79,,0.05
2025-07-21T11:09:59.384899,-131,-52,-964,-2660,-5390,-24290,93,-348,-810,,,0.1
2025-07-21T11:09:59.885874,-102,-84,-992,2590,3430,-16800,145,-427,-883,27.79,1012.77,0.19
2025-07-21T11:10:00.397551,-143,-108,-1058,-4410,-5040,-17010,207,-447,-909,,,0.01
2025-07-21T11:10:00.893196,-42,-84,-950,1960,-11130,-840,192,-423,-912,27.8,1012.8,0.07
2025-07-21T11:10:01.394171,-135,67,-988,-74340,-81760,-36820,199,-405,-946,,,0.03
2025-07-21T11:10:01.893416,-34,-55,-1029,-8680,22120,-31780,238,-354,-906,27.79,1012.82,
2025-07-21T11:10:02.395464,10,-131,-1021,-13300,-5110,-10360,258,-288,-874,,,0.01
2025-07-21T11:10:02.895221,,,,,,,,,,,1012.8,
2025-07-21T11:10:02.906363,-82,-125,-978,-16240,-10360,-59500,258,-286,-856,27.8,,0.05
2025-07-21T11:10:03.404230,5,-7,-1019,-1540,12810,-19950,234,-243,-828,,,0.01
2025-07-21T11:10:03.901430,2,-14,-1016,-5460,560,-3080,,,,27.8,1012.77,
2025-07-21T11:10:03.913655,,,,,,,232,-252,-847,,,0.12
2025-07-21T11:10:04.412480,-37,-49,-1009,6510,-11340,28490,222,-273,-846,,,0.11
2025-07-21T11:10:04.913883,525,-3,-956,-44030,15190,6160,100,159,-762,27.8,1012.77,0.05
2025-07-21T11:10:05.412845,530,-123,-896,-8190,-10780,25200,39,123,-811,,,0.14
2025-07-21T11:10:05.912535,480,-87,-933,-3640,-10990,14700,108,120,-847,27.8,1012.78,0.15
2025-07-21T11:10:06.413414,286,-243,-939,25900,-3360,26670,135,37,-850,,,0.17
2025-07-21T11:10:06.913160,-91,-177,-1014,-35070,1050,31640,33,-286,-1011,27.8,1012.84,
2025-07-21T11:10:07.423812,130,114,-934,-6790,27860,18410,-174,-265,-979,,,0.01
2025-07-21T11:10:07.923224,213,10,-972,-30590,14350,17780,96,-93,-985,27.79,1012.8,0.06
2025-07-21T11:10:08.421872,137,60,-1011,-32690,-5040,10710,108,-75,-930,,,0.05
2025-07-21T11:10:08.921645,131,129,-1002,4550,-8120,-1470,,,,27.8,1012.77,
2025-07-21T11:10:08.934355,,,,,,,84,-60,-972,,,0.05
2025-07-21T11:10:09.424236,103,71,-969,-1330,3850,4340,76,-78,-963,,,0.05
2025-07-21T11:10:09.926357,101,42,-1000,43470,1960,1750,84,-93,-988,27.8,1012.82,0.16
2025-07-21T11:10:10.435895,121,-473,-874,68530,2240,-4410,406,-93,-894,,,0.06
2025-07-21T11:10:10.934845,100,-889,-445,45010,-7000,1330,628,-120,-648,27.79,1012.84,0.1
2025-07-21T11:10:11.435582,40,-996,-124,38010,-5110,1260,709,-165,-477,,,0.03
2025-07-21T11:10:11.937473,31,-973,200,26670,-3290,3290,751,-181,-264,27.8,1012.81,0.06
2025-07-21T11:10:12.437649,26,-971,268,2240,-1120,1330,769,-186,-160,,,0.08
2025-07-21T11:10:12.936954,,,,,,,,,,,1012.81,
2025-07-21T11:10:12.947677,25,-957,288,140,1260,-1890,775,-199,-151,27.8,,0.0
2025-07-21T11:10:13.446386,22,-958,296,-140,840,-910,769,-190,-148,,,0.02
2025-07-21T11:10:13.946685,25,-980,245,-33950,3500,630,765,-202,-178,27.8,1012.82,0.02
2025-07-21T11:10:14.446426,10,-686,-771,-92400,-7420,-18690,549,-172,-775,,,0.06
2025-07-21T11:10:14.945815,20,-137,-1001,-65170,8050,350,150,-151,-997,27.8,1012.75,0.11
2025-07-21T11:10:15.455990,35,226,-966,-37310,-11970,-1260,-64,-123,-897,,,0.1
2025-07-21T11:10:15.947469,-13,414,-932,,,,,,,27.8,,
2025-07-21T11:10:15.958367,,,,-49490,-22960,-7140,-115,-129,-870,,,0.19
2025-07-21T11:10:16.457389,-38,746,-681,-49700,0,-3220,-295,-136,-664,,1012.73,0.08
2025-07-21T11:10:16.958982,-17,997,-138,-44730,7070,1680,-490,-171,0,27.81,,0.11
2025-07-21T11:10:17.456229,-6,989,-54,3080,-490,0,-483,-183,67,,1012.77,0.11
2025-07-21T11:10:17.961043,-29,795,-613,105070,4830,-6020,-417,-153,-505,27.81,,0.02
2025-07-21T11:10:18.459332,94,-17,-1006,,,,,,,,1012.82,
2025-07-21T11:10:18.470322,,,,70140,4410,-4550,48,-81,-996,,,0.11
2025-07-21T11:10:18.969688,-439,-199,-893,43050,-74060,-17080,154,-378,-1015,27.82,,0.05
2025-07-21T11:10:19.467437,-733,-329,-579,15050,-33950,-3430,175,-564,-868,,1012.8,0.05
2025-07-21T11:10:19.974116,-903,-311,-286,-13160,-28070,3220,175,-624,-706,27.85,,0.06
2025-07-21T11:10:20.471615,-922,-297,-213,-1330,7840,3990,168,-631,-645,,1012.8,0.07
2025-07-21T11:10:20.973358,-408,-135,-917,29680,84070,-16450,93,-459,-930,27.85,,0.08
2025-07-21T11:10:21.473526,208,28,-1017,-68460,97370,-33250,15,12,-982,,1012.81,0.06
2025-07-21T11:10:21.974318,756,105,-663,2450,78750,10290,-19,715,-531,27.84,,0.03
2025-07-21T11:10:22.485406,1014,45,-55,-5320,29190,-3220,108,1311,411,,1012.81,1.15
2025-07-21T11:10:22.983285,1004,59,-25,1190,-5250,1820,103,1321,526,27.86,,88.35
2025-07-21T11:10:23.483905,1007,26,-183,5320,-55860,6930,135,1239,279,,1012.8,79.41
2025-07-21T11:10:23.982878,756,-103,-631,7490,-53480,8540,207,666,-499,27.86,,52.89
2025-07-21T11:10:24.492214,269,-236,-958,3570,-67550,20020,231,126,-912,,1012.78,33.02
2025-07-21T11:10:24.990877,-82,-152,-1000,21980,13720,-6440,135,-214,-1053,27.86,,18.48
2025-07-21T11:10:25.488680,-11,-105,-974,-20020,13580,3010,150,-172,-1047,,1012.8,8.16
2025-07-21T11:10:25.988458,49,-18,-1033,,,,,,,27.85,,
2025-07-21T11:10:25.999758,,,,-12600,-4620,-16800,63,-190,-1033,,,0.61
2025-07-21T11:10:26.491309,-15,-32,-967,-4410,7350,-12390,64,-219,-1033,,1012.79,
2025-07-21T11:10:27.000603,87,40,-1066,-26250,1750,-8750,103,-24,-690,27.87,,7.79
2025-07-21T11:26:26.175699,01328a,3,ble_packet
2025-07-21T11:26:27.645746,02328a,3,ble_packet
2025-07-21T11:26:28.156430,01328b,3,ble_packet
2025-07-21T11:26:29.679867,01328a,3,ble_packet
2025-07-21T11:26:30.683646,01328301,4,ble_packet
2025-07-21T11:26:30.721510,013208e6770000000037c3914325e951c00ab10dc1,21,ble_packet
2025-07-21T11:26:30.728220,013208b2840000000037c3914325e951c00ab10dc1,21,ble_packet
2025-07-21T11:26:30.735721,013208e89400000000dfe29143344a81c026ef0fc1,21,ble_packet
2025-07-21T11:26:30.742937,0132081ea500000000dfe29143344a81c026ef0fc1,21,ble_packet
2025-07-21T11:26:30.750676,01320854b500000000dfe29143344a81c026ef0fc1,21,ble_packet
2025-07-21T11:26:30.758106,0132088ac500000000d0f89143ad1297c0592f12c1,21,ble_packet
2025-07-21T11:26:30.766148,013208c1d500000000d0f89143ad1297c0592f12c1,21,ble_packet
2025-07-21T11:26:30.774054,013208f6e50000000081069243bf89aac07eab14c1,21,ble_packet
2025-07-21T11:26:30.781331,0132082cf60000000081069243bf89aac07eab14c1,21,ble_packet
2025-07-21T11:26:30.789346,013208620601000000f00d9243f119bdc0819a16c1,21,ble_packet
2025-07-21T11:26:30.796716,013208981601000000f00d9243f119bdc0819a16c1,21,ble_packet
2025-07-21T11:26:30.804441,013208ce2601000000f00d9243f119bdc0819a16c1,21,ble_packet
2025-07-21T11:26:30.811745,013208043701000000630e9243de42d1c03a4618c1,21,ble_packet
2025-07-21T11:26:30.820257,0132083a4701000000630e9243de42d1c03a4618c1,21,ble_packet
2025-07-21T11:26:30.827465,0132087057010000003b0a9243c5d9e7c01cc119c1,21,ble_packet
2025-07-21T11:26:30.833618,013208a667010000003b0a9243c5d9e7c01cc119c1,21,ble_packet
2025-07-21T11:26:30.841297,013208dc77010000003b0a9243c5d9e7c01cc119c1,21,ble_packet
2025-07-21T11:26:30.847333,013208128801000000b20092437b78ffc0c7fd1ac1,21,ble_packet
2025-07-21T11:26:30.855281,013208489801000000b20092437b78ffc0c7fd1ac1,21,ble_packet
2025-07-21T11:26:30.862648,0132087ea801000000adf19143ffd70cc1d73b1cc1,21,ble_packet
2025-07-21T11:26:30.870648,013208b4b801000000adf19143ffd70cc1d73b1cc1,21,ble_packet
2025-07-21T11:26:30.879847,013208eac801000000d0dd91437e791ac189941dc1,21,ble_packet
2025-07-21T11:26:30.886764,01320820d901000000d0dd91437e791ac189941dc1,21,ble_packet
2025-07-21T11:26:30.894731,01320856e901000000d0dd91437e791ac189941dc1,21,ble_packet
2025-07-21T11:26:30.902295,0132088cf901000000c4c89143d43627c1cf7f1cc1,21,ble_packet
2025-07-21T11:26:30.910525,013208c20902000000c4c89143d43627c1cf7f1cc1,21,ble_packet
2025-07-21T11:26:30.917895,013208f8190200000058b49143daf132c1069f1ac1,21,ble_packet
2025-07-21T11:26:30.926905,0132082e2a0200000058b49143daf132c1069f1ac1,21,ble_packet
2025-07-21T11:26:30.935851,013208643a0200000058b49143daf132c1069f1ac1,21,ble_packet
2025-07-21T11:26:30.944437,0132089a4a020000004d99914330a03fc17aec1ac1,21,ble_packet
2025-07-21T11:26:30.952439,013208d05a020000004d99914330a03fc17aec1ac1,21,ble_packet
2025-07-21T11:26:30.959824,013208066b02000000567b914326774ac1b5c117c1,21,ble_packet
2025-07-21T11:26:30.967929,0132083c7b02000000567b914326774ac1b5c117c1,21,ble_packet
2025-07-21T11:26:30.975254,013208738b02000000cb619143caf754c1915416c1,21,ble_packet
2025-07-21T11:26:30.981704,013208a89b02000000cb619143caf754c1915416c1,21,ble_packet
2025-07-21T11:26:30.988689,013208deab02000000cb619143caf754c1915416c1,21,ble_packet
2025-07-21T11:26:30.995152,01320814bc02000000ca47914352095fc1938a16c1,21,ble_packet
2025-07-21T11:26:31.002627,0132084acc02000000ca47914352095fc1938a16c1,21,ble_packet
2025-07-21T11:26:31.008733,01320880dc02000000ef2c9143ecf767c1f60716c1,21,ble_packet
2025-07-21T11:26:31.015752,013208b6ec02000000ef2c9143ecf767c1f60716c1,21,ble_packet
2025-07-21T11:26:31.022982,013208edfc02000000ef2c9143ecf767c1f60716c1,21,ble_packet
2025-07-21T11:26:31.029242,013208220d030000003716914350696fc1941516c1,21,ble_packet
2025-07-21T11:26:31.036584,013208581d030000003716914350696fc1941516c1,21,ble_packet
2025-07-21T11:26:31.043432,0132088e2d03000000e2029143ca1c76c1ab9516c1,21,ble_packet
2025-07-21T11:26:31.050648,013208c43d03000000e2029143ca1c76c1ab9516c1,21,ble_packet
2025-07-21T11:26:31.057075,013208fa4d030000008ff09043c0407cc14b4817c1,21,ble_packet
2025-07-21T11:26:31.064188,013208305e030000008ff09043c0407cc14b4817c1,21,ble_packet
2025-07-21T11:26:31.071136,013208666e030000008ff09043c0407cc14b4817c1,21,ble_packet
2025-07-21T11:26:31.077875,0132089c7e03000000cee0904312c680c1bf9216c1,21,ble_packet
2025-07-21T11:26:31.086267,013208d28e03000000cee0904312c680c1bf9216c1,21,ble_packet
2025-07-21T11:26:31.093288,013208089f030000009ad590435c3283c1ec1916c1,21,ble_packet
2025-07-21T11:26:31.101856,0132083eaf030000009ad590435c3283c1ec1916c1,21,ble_packet
2025-07-21T11:26:31.110282,01320874bf030000009ad590435c3283c1ec1916c1,21,ble_packet
2025-07-21T11:26:31.117451,013208aacf0300000041cd9043113f85c129f915c1,21,ble_packet
2025-07-21T11:26:31.125541,013208e0df0300000041cd9043113f85c129f915c1,21,ble_packet
2025-07-21T11:26:31.132767,01320816f003000000a4c79043e2e686c1e78215c1,21,ble_packet
2025-07-21T11:26:31.140875,0132084d0004000000a4c79043e2e686c1e78215c1,21,ble_packet
2025-07-21T11:26:31.148186,013208821004000000a4c79043e2e686c1e78215c1,21,ble_packet
2025-07-21T11:26:31.156796,013208b82004000000b6c59043a55288c12fe914c1,21,ble_packet
2025-07-21T11:26:31.164946,013208ee3004000000b6c59043a55288c12fe914c1,21,ble_packet
2025-07-21T11:26:31.171889,0132082441040000000ac69043c6be89c1962c14c1,21,ble_packet
2025-07-21T11:26:31.179844,0132085a51040000000ac69043c6be89c1962c14c1,21,ble_packet
2025-07-21T11:26:31.186741,013208906104000000adc790432f258bc1023913c1,21,ble_packet
2025-07-21T11:26:31.196069,013208c67104000000adc790432f258bc1023913c1,21,ble_packet
2025-07-21T11:26:31.204064,013208fc8104000000adc790432f258bc1023913c1,21,ble_packet
2025-07-21T11:26:31.213788,013208329204000000cdc990433e668cc167f411c1,21,ble_packet
2025-07-21T11:26:31.222103,01320868a204000000cdc990433e668cc167f411c1,21,ble_packet
2025-07-21T11:26:31.229267,0132089eb204000000cdcc904331b88dc18b7510c1,21,ble_packet
2025-07-21T11:26:31.237823,013208d4c204000000cdcc904331b88dc18b7510c1,21,ble_packet
2025-07-21T11:26:31.245127,0132080ad304000000cdcc904331b88dc18b7510c1,21,ble_packet
2025-07-21T11:26:31.253576,01320840e304000000ded0904369e68ec1d9b80ec1,21,ble_packet
2025-07-21T11:26:31.262234,01320876f304000000ded0904369e68ec1d9b80ec1,21,ble_packet
2025-07-21T11:26:31.269542,013208ac0305000000bdd59043e64990c1f51e0dc1,21,ble_packet
2025-07-21T11:26:31.278006,013208e31305000000bdd59043e64990c1f51e0dc1,21,ble_packet
2025-07-21T11:26:31.285288,0132081824050000003ddb9043afaf91c153710bc1,21,ble_packet
2025-07-21T11:26:31.293479,0132084e34050000003ddb9043afaf91c153710bc1,21,ble_packet
2025-07-21T11:26:31.300894,0132088444050000003ddb9043afaf91c153710bc1,21,ble_packet
2025-07-21T11:26:31.308851,013208ba54050000005fe09043150993c199cf09c1,21,ble_packet
2025-07-21T11:26:31.317048,013208f064050000005fe09043150993c199cf09c1,21,ble_packet
2025-07-21T11:26:31.324032,01320826750500000062e59043b83694c1f54b08c1,21,ble_packet
2025-07-21T11:26:31.332266,0132085c850500000062e59043b83694c1f54b08c1,21,ble_packet
2025-07-21T11:26:31.339675,01320892950500000062e59043b83694c1f54b08c1,21,ble_packet
2025-07-21T11:26:31.348126,013208c8a50500000016ea90439a4795c16ca506c1,21,ble_packet
2025-07-21T11:26:31.356688,013208feb50500000016ea90439a4795c16ca506c1,21,ble_packet
2025-07-21T11:26:31.365606,01320834c60500000000ef9043ea4096c1cbf804c1,21,ble_packet
2025-07-21T11:26:31.375860,0132086ad60500000000ef9043ea4096c1cbf804c1,21,ble_packet
2025-07-21T11:26:31.384895,013208a1e60500000037f490435e2d97c1315f03c1,21,ble_packet
2025-07-21T11:26:31.393750,013208d6f60500000037f490435e2d97c1315f03c1,21,ble_packet
2025-07-21T11:26:31.401679,0132080c070600000037f490435e2d97c1315f03c1,21,ble_packet
2025-07-21T11:26:31.411488,013208421706000000c4f790434e3598c1b02e02c1,21,ble_packet
2025-07-21T11:26:31.420024,013208792706000000c4f790434e3598c1b02e02c1,21,ble_packet
2025-07-21T11:26:31.428553,013208ae370600000088f990431a5599c14f4301c1,21,ble_packet
2025-07-21T11:26:31.437754,013208e4470600000088f990431a5599c14f4301c1,21,ble_packet
2025-07-21T11:26:31.445902,0132081a580600000088f990431a5599c14f4301c1,21,ble_packet
2025-07-21T11:26:31.455698,0132085068060000004df890431b619ac137ab00c1,21,ble_packet
2025-07-21T11:26:31.463851,0132088678060000004df890431b619ac137ab00c1,21,ble_packet
2025-07-21T11:26:31.473578,013208bd88060000002ff7904362359bc1311400c1,21,ble_packet
2025-07-21T11:26:31.482671,013208f298060000002ff7904362359bc1311400c1,21,ble_packet
2025-07-21T11:26:31.491101,01320828a9060000002ff7904362359bc1311400c1,21,ble_packet
2025-07-21T11:26:31.500515,0132085eb906000000b3f7904367f39bc125b2fec0,21,ble_packet
2025-07-21T11:26:31.507819,01320894c906000000b3f7904367f39bc125b2fec0,21,ble_packet
2025-07-21T11:26:31.515952,013208cad90600000066f9904378789cc1cc36fdc0,21,ble_packet
2025-07-21T11:26:31.523216,01320801ea0600000066f9904378789cc1cc36fdc0,21,ble_packet
2025-07-21T11:26:31.532169,01320836fa0600000055fc904398ea9cc1568bfcc0,21,ble_packet
2025-07-21T11:26:31.540984,0132086c0a0700000055fc904398ea9cc1568bfcc0,21,ble_packet
2025-07-21T11:26:31.555417,013208a21a0700000055fc904398ea9cc1568bfcc0,21,ble_packet
2025-07-21T11:26:31.564937,013208d92a07000000eefe9043b9709dc15d0efcc0,21,ble_packet
2025-07-21T11:26:31.572101,0132080e3b07000000eefe9043b9709dc15d0efcc0,21,ble_packet
2025-07-21T11:26:31.580759,013208444b07000000620191436bf99dc1ea77fbc0,21,ble_packet
2025-07-21T11:26:31.588113,0132087a5b07000000620191436bf99dc1ea77fbc0,21,ble_packet
2025-07-21T11:26:31.595977,013208b06b07000000620191436bf99dc1ea77fbc0,21,ble_packet
2025-07-21T11:26:31.604096,013208e67b070000007605914315509ec16941fac0,21,ble_packet
2025-07-21T11:26:31.611284,0132081d8c070000007605914315509ec16941fac0,21,ble_packet
2025-07-21T11:26:31.619295,013208529c070000003309914383a39ec1062df9c0,21,ble_packet
2025-07-21T11:26:31.627785,01320888ac070000003309914383a39ec1062df9c0,21,ble_packet
2025-07-21T11:26:31.636656,013208bebc07000000380d914346de9ec1bf01f8c0,21,ble_packet
2025-07-21T11:26:31.644996,013208f4cc07000000380d914346de9ec1bf01f8c0,21,ble_packet
2025-07-21T11:26:31.652352,0132082add07000000380d914346de9ec1bf01f8c0,21,ble_packet
2025-07-21T11:26:31.660627,01320860ed070000005011914396209fc161e2f6c0,21,ble_packet
2025-07-21T11:26:31.667205,01320896fd070000005011914396209fc161e2f6c0,21,ble_packet
2025-07-21T11:26:31.674232,013208cd0d08000000b8149143c9759fc14aadf5c0,21,ble_packet
2025-07-21T11:26:31.679458,013208021e08000000b8149143c9759fc14aadf5c0,21,ble_packet
2025-07-21T11:26:31.686818,013208382e08000000b8149143c9759fc14aadf5c0,21,ble_packet
2025-07-21T11:26:31.693447,0132086e3e08000000c9169143ffe09fc1c67ff4c0,21,ble_packet
2025-07-21T11:26:31.699950,013208a44e08000000c9169143ffe09fc1c67ff4c0,21,ble_packet
2025-07-21T11:26:31.707647,013208da5e080000005a1891432e55a0c15467f3c0,21,ble_packet
2025-07-21T11:26:31.712884,013208106f080000005a1891432e55a0c15467f3c0,21,ble_packet
2025-07-21T11:26:31.718990,013208467f08000000a119914311c7a0c14163f2c0,21,ble_packet
2025-07-21T11:26:31.724323,0132087c8f08000000a119914311c7a0c14163f2c0,21,ble_packet
2025-07-21T11:26:31.729747,013208b29f08000000a119914311c7a0c14163f2c0,21,ble_packet
2025-07-21T11:26:31.736085,013208e8af08000000961a9143c438a1c16826f1c0,21,ble_packet
2025-07-21T11:26:31.741451,0132081ec008000000961a9143c438a1c16826f1c0,21,ble_packet
2025-07-21T11:26:31.747703,01320855d008000000681b9143fc98a1c10312f0c0,21,ble_packet
2025-07-21T11:26:31.754930,0132088be008000000681b9143fc98a1c10312f0c0,21,ble_packet
2025-07-21T11:26:31.763799,013208c0f008000000681b9143fc98a1c10312f0c0,21,ble_packet
2025-07-21T11:26:31.772868,013208f60009000000b81c9143c2d9a1c1d603efc0,21,ble_packet
2025-07-21T11:26:31.778560,0132082c1109000000b81c9143c2d9a1c1d603efc0,21,ble_packet
2025-07-21T11:26:31.785510,013208632109000000e11d9143b126a2c15460eec0,21,ble_packet
2025-07-21T11:26:31.791209,013208983109000000e11d9143b126a2c15460eec0,21,ble_packet
2025-07-21T11:26:31.797916,013208ce4109000000db1e9143c86ca2c110baedc0,21,ble_packet
2025-07-21T11:26:31.803948,013208045209000000db1e9143c86ca2c110baedc0,21,ble_packet
2025-07-21T11:26:31.812240,0132083b6209000000db1e9143c86ca2c110baedc0,21,ble_packet
2025-07-21T11:26:31.818772,0132087072090000005e1f9143d399a2c1c159edc0,21,ble_packet
2025-07-21T11:26:31.824029,013208a682090000005e1f9143d399a2c1c159edc0,21,ble_packet
2025-07-21T11:26:31.830179,013208dd9209000000c61e914365d1a2c1a15dedc0,21,ble_packet
2025-07-21T11:26:31.835907,01320812a309000000c61e914365d1a2c1a15dedc0,21,ble_packet
2025-07-21T11:26:31.842243,01320849b309000000c61e914365d1a2c1a15dedc0,21,ble_packet
2025-07-21T11:26:31.847673,0132087ec3090000007a1d9143a0efa2c18470edc0,21,ble_packet
2025-07-21T11:26:31.853461,013208b4d3090000007a1d9143a0efa2c18470edc0,21,ble_packet
2025-07-21T11:26:31.864896,013208eae309000000611c91431906a3c1c84cedc0,21,ble_packet
2025-07-21T11:26:31.873229,01320820f409000000611c91431906a3c1c84cedc0,21,ble_packet
2025-07-21T11:26:31.880450,01320856040a000000611c91431906a3c1c84cedc0,21,ble_packet
2025-07-21T11:26:31.885948,0132088c140a000000d11b91436135a3c1f608edc0,21,ble_packet
2025-07-21T11:26:31.892490,013208c2240a000000d11b91436135a3c1f608edc0,21,ble_packet
2025-07-21T11:26:31.897890,013208f8340a000000971b9143766ba3c17eb9ecc0,21,ble_packet
2025-07-21T11:26:31.904273,0132082e450a000000971b9143766ba3c17eb9ecc0,21,ble_packet
2025-07-21T11:26:31.910622,01320864550a000000171b9143d2bca3c18da3ecc0,21,ble_packet
2025-07-21T11:26:31.916259,0132089b650a000000171b9143d2bca3c18da3ecc0,21,ble_packet
2025-07-21T11:26:31.922650,013208d0750a000000171b9143d2bca3c18da3ecc0,21,ble_packet
2025-07-21T11:26:31.928405,01320806860a0000009e199143ae1ca4c15f05edc0,21,ble_packet
2025-07-21T11:26:31.935607,0132083d960a0000009e199143ae1ca4c15f05edc0,21,ble_packet
2025-07-21T11:26:31.941832,01320872a60a000000e7169143cd75a4c165cdedc0,21,ble_packet
2025-07-21T11:26:31.947282,013208a8b60a000000e7169143cd75a4c165cdedc0,21,ble_packet
2025-07-21T11:26:31.953692,013208dfc60a000000e7169143cd75a4c165cdedc0,21,ble_packet
2025-07-21T11:26:31.959164,01320814d70a0000006312914387c2a4c19c1eefc0,21,ble_packet
2025-07-21T11:26:31.965405,0132084ae70a0000006312914387c2a4c19c1eefc0,21,ble_packet
2025-07-21T11:26:31.970627,01320880f70a0000003d0e91433305a5c11951f0c0,21,ble_packet
2025-07-21T11:26:31.977175,013208b6070b0000003d0e91433305a5c11951f0c0,21,ble_packet
2025-07-21T11:26:31.983590,013208ec170b000000350b9143283ca5c13b52f1c0,21,ble_packet
2025-07-21T11:26:31.989293,01320822280b000000350b9143283ca5c13b52f1c0,21,ble_packet
2025-07-21T11:26:31.997764,01320858380b000000350b9143283ca5c13b52f1c0,21,ble_packet
2025-07-21T11:26:32.005213,0132088e480b000000990a91430a3da5c1eb83f1c0,21,ble_packet
2025-07-21T11:26:32.013761,013208c4580b000000990a91430a3da5c1eb83f1c0,21,ble_packet
2025-07-21T11:26:32.021289,013208fa680b000000470b9143d447a5c12d2bf1c0,21,ble_packet
2025-07-21T11:26:32.027935,01320830790b000000470b9143d447a5c12d2bf1c0,21,ble_packet
2025-07-21T11:26:32.034715,01320866890b000000470b9143d447a5c12d2bf1c0,21,ble_packet
2025-07-21T11:26:32.040701,0132089d990b000000b90b9143e06ba5c13c61f1c0,21,ble_packet
2025-07-21T11:26:32.047570,013208d2a90b000000b90b9143e06ba5c13c61f1c0,21,ble_packet
2025-07-21T11:26:32.053242,01320808ba0b000000920b9143ada4a5c103eff1c0,21,ble_packet
2025-07-21T11:26:32.061285,0132083fca0b000000920b9143ada4a5c103eff1c0,21,ble_packet
2025-07-21T11:26:32.069805,01320874da0b0000006a0a9143ddf4a5c1bee9f2c0,21,ble_packet
2025-07-21T11:26:32.077360,013208aaea0b0000006a0a9143ddf4a5c1bee9f2c0,21,ble_packet
2025-07-21T11:26:32.085761,013208e0fa0b0000006a0a9143ddf4a5c1bee9f2c0,21,ble_packet
2025-07-21T11:26:32.092088,013208160b0c0000002c0891439151a6c10a08f4c0,21,ble_packet
2025-07-21T11:26:32.099909,0132084c1b0c0000002c0891439151a6c10a08f4c0,21,ble_packet
2025-07-21T11:26:32.106979,013208822b0c000000a90691438b82a6c178f1f4c0,21,ble_packet
2025-07-21T11:26:32.114581,013208b83b0c000000a90691438b82a6c178f1f4c0,21,ble_packet
2025-07-21T11:26:32.121416,013208ee4b0c000000a90691438b82a6c178f1f4c0,21,ble_packet
2025-07-21T11:26:32.127158,013208245c0c0000002d06914305a4a6c13294f5c0,21,ble_packet
2025-07-21T11:26:32.135404,0132085a6c0c0000002d06914305a4a6c13294f5c0,21,ble_packet
2025-07-21T11:26:32.142398,013208907c0c0000003d069143bcdca6c17657f6c0,21,ble_packet
2025-07-21T11:26:32.149300,013208c68c0c0000003d069143bcdca6c17657f6c0,21,ble_packet
2025-07-21T11:26:32.155147,013208fd9c0c000000970591431c2da7c1419bf7c0,21,ble_packet
2025-07-21T11:26:32.162065,01320832ad0c000000970591431c2da7c1419bf7c0,21,ble_packet
2025-07-21T11:26:32.169132,01320868bd0c000000970591431c2da7c1419bf7c0,21,ble_packet
2025-07-21T11:26:32.174998,0132089ecd0c000000430491434f6ca7c188e9f8c0,21,ble_packet
2025-07-21T11:26:32.183730,013208d5dd0c000000430491434f6ca7c188e9f8c0,21,ble_packet
2025-07-21T11:26:32.191141,0132080aee0c000000150391437aa8a7c1ece7f9c0,21,ble_packet
2025-07-21T11:26:32.200818,01320840fe0c000000150391437aa8a7c1ece7f9c0,21,ble_packet
2025-07-21T11:26:32.208946,013208760e0d000000150391437aa8a7c1ece7f9c0,21,ble_packet
2025-07-21T11:26:32.215838,013208ac1e0d000000c20091439ddea7c1606dfbc0,21,ble_packet
2025-07-21T11:26:32.223388,013208e22e0d000000c20091439ddea7c1606dfbc0,21,ble_packet
2025-07-21T11:26:32.230052,013208183f0d00000095fe90433c0da8c1fadcfcc0,21,ble_packet
2025-07-21T11:26:32.238727,0132084e4f0d00000095fe90433c0da8c1fadcfcc0,21,ble_packet
2025-07-21T11:26:32.247296,013208845f0d00000095fe90433c0da8c1fadcfcc0,21,ble_packet
2025-07-21T11:26:32.256847,013208ba6f0d000000c7fc90437539a8c1e60cfec0,21,ble_packet
2025-07-21T11:26:32.266671,013208f07f0d000000c7fc90437539a8c1e60cfec0,21,ble_packet
2025-07-21T11:26:32.274586,01320826900d00000064fb90438a53a8c147f2fec0,21,ble_packet
2025-07-21T11:26:32.284963,0132085ca00d00000064fb90438a53a8c147f2fec0,21,ble_packet
2025-07-21T11:26:32.291359,01320892b00d0000000cfa9043bd6aa8c1b17cffc0,21,ble_packet
2025-07-21T11:26:32.299294,013208c8c00d0000000cfa9043bd6aa8c1b17cffc0,21,ble_packet
2025-07-21T11:26:32.305900,013208fed00d0000000cfa9043bd6aa8c1b17cffc0,21,ble_packet
2025-07-21T11:26:32.313299,01320834e10d000000ecf990431176a8c1af9dffc0,21,ble_packet
2025-07-21T11:26:32.321343,0132086af10d000000ecf990431176a8c1af9dffc0,21,ble_packet
2025-07-21T11:26:32.327848,013208a0010e00000019fa90438693a8c1db60ffc0,21,ble_packet
2025-07-21T11:26:32.335492,013208d6110e00000019fa90438693a8c1db60ffc0,21,ble_packet
2025-07-21T11:26:32.343325,0132080d220e00000019fa90438693a8c1db60ffc0,21,ble_packet
2025-07-21T11:26:32.351578,01320842320e00000088f99043a3e4a8c113e4ffc0,21,ble_packet
2025-07-21T11:26:32.358392,01320878420e00000088f99043a3e4a8c113e4ffc0,21,ble_packet
2025-07-21T11:26:32.365489,013208ae520e0000008af890436528a9c1d72e00c1,21,ble_packet
2025-07-21T11:26:32.374740,013208e5620e0000008af890436528a9c1d72e00c1,21,ble_packet
2025-07-21T11:26:32.382611,0132081a730e000000cef790431159a9c1b15400c1,21,ble_packet
2025-07-21T11:26:32.391826,01320850830e000000cef790431159a9c1b15400c1,21,ble_packet
2025-07-21T11:26:32.399558,01320886930e000000cef790431159a9c1b15400c1,21,ble_packet
2025-07-21T11:26:32.408392,013208bca30e000000e8f79043e26ba9c1b63600c1,21,ble_packet
2025-07-21T11:26:32.416601,013208f2b30e000000e8f79043e26ba9c1b63600c1,21,ble_packet
2025-07-21T11:26:32.423781,01320828c40e000000c8f89043c364a9c170e3ffc0,21,ble_packet
2025-07-21T11:26:32.431219,0132085ed40e000000c8f89043c364a9c170e3ffc0,21,ble_packet
2025-07-21T11:26:32.437317,01320894e40e000000c8f89043c364a9c170e3ffc0,21,ble_packet
2025-07-21T11:26:32.444682,013208caf40e0000003dfb90434446a9c1c5ccfec0,21,ble_packet
2025-07-21T11:26:32.451043,01320800050f0000003dfb90434446a9c1c5ccfec0,21,ble_packet
2025-07-21T11:26:32.459173,01320836150f00000091fd90436235a9c1d227fec0,21,ble_packet
2025-07-21T11:26:32.466312,0132086c250f00000091fd90436235a9c1d227fec0,21,ble_packet
2025-07-21T11:26:32.472874,013208a2350f000000ebff90430239a9c133d4fdc0,21,ble_packet
2025-07-21T11:26:32.481429,013208d8450f000000ebff90430239a9c133d4fdc0,21,ble_packet
2025-07-21T11:26:32.488928,0132080e560f000000ebff90430239a9c133d4fdc0,21,ble_packet
2025-07-21T11:26:32.497246,01320844660f0000009f0291431428a9c13bc3fdc0,21,ble_packet
2025-07-21T11:26:32.503702,0132087a760f0000009f0291431428a9c13bc3fdc0,21,ble_packet
2025-07-21T11:26:32.510329,013208b0860f000000b00491432629a9c102f8fdc0,21,ble_packet
2025-07-21T11:26:32.518843,013208e7960f000000b00491432629a9c102f8fdc0,21,ble_packet
2025-07-21T11:26:32.527275,0132081ca70f000000b00491432629a9c102f8fdc0,21,ble_packet
2025-07-21T11:26:32.535701,01320852b70f000000660591436221a9c1e748fec0,21,ble_packet
2025-07-21T11:26:32.542402,01320888c70f000000660591436221a9c1e748fec0,21,ble_packet
2025-07-21T11:26:32.550141,013208bed70f0000003d0791433919a9c1c604fdc0,21,ble_packet
2025-07-21T11:26:32.557366,013208f4e70f0000003d0791433919a9c1c604fdc0,21,ble_packet
2025-07-21T11:26:32.563628,0132082af80f000000400a91434b4fa9c1faeefbc0,21,ble_packet
2025-07-21T11:26:32.571826,013208600810000000400a91434b4fa9c1faeefbc0,21,ble_packet
2025-07-21T11:26:32.579056,013208961810000000400a91434b4fa9c1faeefbc0,21,ble_packet
2025-07-21T11:26:32.588104,013208cc2810000000b00b91436b21aac12fb4fec0,21,ble_packet
2025-07-21T11:26:32.594647,013208023910000000b00b91436b21aac12fb4fec0,21,ble_packet
2025-07-21T11:26:32.603355,013208384910000000350d9143a4d0aac10e5001c1,21,ble_packet
2025-07-21T11:26:32.611605,0132086e5910000000350d9143a4d0aac10e5001c1,21,ble_packet
2025-07-21T11:26:32.618963,013208a46910000000350d9143a4d0aac10e5001c1,21,ble_packet
2025-07-21T11:26:32.627194,013208da79100000009417914336d8a9c1fbb203c1,21,ble_packet
2025-07-21T11:26:32.635903,013208108a100000009417914336d8a9c1fbb203c1,21,ble_packet
2025-07-21T11:26:32.645430,013208479a10000000a21e9143878eabc1aa7407c1,21,ble_packet
2025-07-21T11:26:32.652845,0132087caa10000000a21e9143878eabc1aa7407c1,21,ble_packet
2025-07-21T11:26:32.660285,013208b2ba10000000a21e9143878eabc1aa7407c1,21,ble_packet
2025-07-21T11:26:32.668378,013208e8ca10000000841b91438347adc18c6e0fc1,21,ble_packet
2025-07-21T11:26:32.674679,0132081edb10000000841b91438347adc18c6e0fc1,21,ble_packet
2025-07-21T11:26:32.681987,01320854eb10000000371691432779aec1c14613c1,21,ble_packet
2025-07-21T11:26:32.688148,0132088afb10000000371691432779aec1c14613c1,21,ble_packet
2025-07-21T11:26:32.695617,013208c10b110000002e189143db20afc18be915c1,21,ble_packet
2025-07-21T11:26:32.705177,013208f61b110000002e189143db20afc18be915c1,21,ble_packet
2025-07-21T11:26:32.711805,01328300,4,ble_packet
2025-07-21T11:26:33.015908,01328301,4,ble_packet
2025-07-21T11:26:33.046080,0132081b79000000007d129143a8c5b0c1e3b915c1,21,ble_packet
2025-07-21T11:26:33.055019,0132088981000000007d129143a8c5b0c1e3b915c1,21,ble_packet
2025-07-21T11:26:33.063315,013208c18a000000002e13914391f9b1c182b614c1,21,ble_packet
2025-07-21T11:26:33.071915,013208f79a000000002e13914391f9b1c182b614c1,21,ble_packet
2025-07-21T11:26:33.079287,0132082dab00000000951d914300ecb2c19f7011c1,21,ble_packet
2025-07-21T11:26:33.088614,01320862bb00000000951d914300ecb2c19f7011c1,21,ble_packet
2025-07-21T11:26:33.096893,01320898cb00000000951d914300ecb2c19f7011c1,21,ble_packet
2025-07-21T11:26:33.106640,013208cedb00000000c03491437c0eb4c115340dc1,21,ble_packet
2025-07-21T11:26:33.114490,01320805ec00000000c03491437c0eb4c115340dc1,21,ble_packet
2025-07-21T11:26:33.123930,0132083afc00000000644d91436665b5c1131809c1,21,ble_packet
2025-07-21T11:26:33.132491,013208710c01000000644d91436665b5c1131809c1,21,ble_packet
2025-07-21T11:26:33.140699,013208a61c01000000644d91436665b5c1131809c1,21,ble_packet
2025-07-21T11:26:33.151492,013208dc2c01000000336391434c1db7c1abe604c1,21,ble_packet
2025-07-21T11:26:33.161591,013208123d01000000336391434c1db7c1abe604c1,21,ble_packet
2025-07-21T11:26:33.171572,013208494d010000001e789143cc13b9c19a2201c1,21,ble_packet
2025-07-21T11:26:33.181175,0132087f5d010000001e789143cc13b9c19a2201c1,21,ble_packet
2025-07-21T11:26:33.190176,013208b46d010000004e8b91433112bbc16f59fbc0,21,ble_packet
2025-07-21T11:26:33.199170,013208ea7d010000004e8b91433112bbc16f59fbc0,21,ble_packet
2025-07-21T11:26:33.207455,013208218e010000004e8b91433112bbc16f59fbc0,21,ble_packet
2025-07-21T11:26:33.216318,013208569e01000000209a91432244bdc11b06f7c0,21,ble_packet
2025-07-21T11:26:33.223916,0132088cae01000000209a91432244bdc11b06f7c0,21,ble_packet
2025-07-21T11:26:33.231550,013208c2be0100000034a59143d381bfc14ad6f4c0,21,ble_packet
2025-07-21T11:26:33.238270,013208f8ce0100000034a59143d381bfc14ad6f4c0,21,ble_packet
2025-07-21T11:26:33.245973,0132082fdf0100000034a59143d381bfc14ad6f4c0,21,ble_packet
2025-07-21T11:26:33.254515,01320864ef01000000faa9914368eac1c10968f4c0,21,ble_packet
2025-07-21T11:26:33.261660,0132089aff01000000faa9914368eac1c10968f4c0,21,ble_packet
2025-07-21T11:26:33.269614,013208d10f02000000f3a89143bc4dc4c10b51f4c0,21,ble_packet
2025-07-21T11:26:33.275869,013208062002000000f3a89143bc4dc4c10b51f4c0,21,ble_packet
2025-07-21T11:26:33.284144,0132083c3002000000f3a89143bc4dc4c10b51f4c0,21,ble_packet
2025-07-21T11:26:33.291209,013208734002000000fc9d91433483c6c10d23f3c0,21,ble_packet
2025-07-21T11:26:33.297813,013208a85002000000fc9d91433483c6c10d23f3c0,21,ble_packet
2025-07-21T11:26:33.305062,013208de60020000008e8f91430aaac8c1ef28eec0,21,ble_packet
2025-07-21T11:26:33.310421,0132081571020000008e8f91430aaac8c1ef28eec0,21,ble_packet
2025-07-21T11:26:33.316940,0132084b810200000083839143776acac1f7aae8c0,21,ble_packet
2025-07-21T11:26:33.322467,01320880910200000083839143776acac1f7aae8c0,21,ble_packet
2025-07-21T11:26:33.328870,013208b7a10200000083839143776acac1f7aae8c0,21,ble_packet
2025-07-21T11:26:33.335258,013208ecb1020000004b7991432ef0cbc1fa8ce0c0,21,ble_packet
2025-07-21T11:26:33.341906,01320823c2020000004b7991432ef0cbc1fa8ce0c0,21,ble_packet
2025-07-21T11:26:33.349638,01320858d202000000a96e91438ee8ccc16508d9c0,21,ble_packet
2025-07-21T11:26:33.355543,0132088fe202000000a96e91438ee8ccc16508d9c0,21,ble_packet
2025-07-21T11:26:33.361918,013208c4f202000000a96e91438ee8ccc16508d9c0,21,ble_packet
2025-07-21T11:26:33.367304,013208fa0203000000326191433526cdc112c7d3c0,21,ble_packet
2025-07-21T11:26:33.373850,013208311303000000326191433526cdc112c7d3c0,21,ble_packet
2025-07-21T11:26:33.380476,01320866230300000091539143390ccdc13c82cfc0,21,ble_packet
2025-07-21T11:26:33.386557,0132089c330300000091539143390ccdc13c82cfc0,21,ble_packet
2025-07-21T11:26:33.393469,013208d34303000000c6469143c2b9ccc185b5cbc0,21,ble_packet
2025-07-21T11:26:33.399096,013208095403000000c6469143c2b9ccc185b5cbc0,21,ble_packet
2025-07-21T11:26:33.405811,0132083e6403000000c6469143c2b9ccc185b5cbc0,21,ble_packet
2025-07-21T11:26:33.412814,013208757403000000c43a9143eb1dccc1cb14cac0,21,ble_packet
2025-07-21T11:26:33.418348,013208aa8403000000c43a9143eb1dccc1cb14cac0,21,ble_packet
2025-07-21T11:26:33.424870,013208e09403000000522e91432f86cbc1bdc0c9c0,21,ble_packet
2025-07-21T11:26:33.430562,01320816a503000000522e91432f86cbc1bdc0c9c0,21,ble_packet
2025-07-21T11:26:33.437247,0132084cb503000000522e91432f86cbc1bdc0c9c0,21,ble_packet
2025-07-21T11:26:33.442609,01320882c50300000087229143e29dcac192fbc8c0,21,ble_packet
2025-07-21T11:26:33.449306,013208b8d50300000087229143e29dcac192fbc8c0,21,ble_packet
2025-07-21T11:26:33.455704,013208eee503000000b818914343afc9c1b731c8c0,21,ble_packet
2025-07-21T11:26:33.461530,01320825f603000000b818914343afc9c1b731c8c0,21,ble_packet
2025-07-21T11:26:33.468272,0132085b0604000000651191430dc0c8c1368cc7c0,21,ble_packet
2025-07-21T11:26:33.473801,013208911604000000651191430dc0c8c1368cc7c0,21,ble_packet
2025-07-21T11:26:33.480357,013208c62604000000651191430dc0c8c1368cc7c0,21,ble_packet
2025-07-21T11:26:33.485899,013208fd3604000000f20c9143a0c6c7c1a554c6c0,21,ble_packet
2025-07-21T11:26:33.492678,013208324704000000f20c9143a0c6c7c1a554c6c0,21,ble_packet
2025-07-21T11:26:33.499527,013208685704000000910b914351b6c6c14503c4c0,21,ble_packet
2025-07-21T11:26:33.505571,0132089f6704000000910b914351b6c6c14503c4c0,21,ble_packet
2025-07-21T11:26:33.512300,013208d47704000000910b914351b6c6c14503c4c0,21,ble_packet
2025-07-21T11:26:33.517761,0132080a8804000000b10c9143afbac5c13bfbc1c0,21,ble_packet
2025-07-21T11:26:33.524440,013208409804000000b10c9143afbac5c13bfbc1c0,21,ble_packet
2025-07-21T11:26:33.530960,01320876a804000000260e91435adcc4c13bd6bfc0,21,ble_packet
2025-07-21T11:26:33.537633,013208acb804000000260e91435adcc4c13bd6bfc0,21,ble_packet
2025-07-21T11:26:33.545277,013208e2c804000000940f9143342dc4c1fcc4bdc0,21,ble_packet
2025-07-21T11:26:33.552801,01320818d904000000940f9143342dc4c1fcc4bdc0,21,ble_packet
2025-07-21T11:26:33.561541,0132084fe904000000940f9143342dc4c1fcc4bdc0,21,ble_packet
2025-07-21T11:26:33.568864,01320884f9040000006810914326a9c3c1f645bcc0,21,ble_packet
2025-07-21T11:26:33.576689,013208ba09050000006810914326a9c3c1f645bcc0,21,ble_packet
2025-07-21T11:26:33.591382,013208f11905000000f2109143d84cc3c13d4dbbc0,21,ble_packet
2025-07-21T11:26:33.599156,013208262a05000000f2109143d84cc3c13d4dbbc0,21,ble_packet
2025-07-21T11:26:33.607114,0132085c3a05000000f2109143d84cc3c13d4dbbc0,21,ble_packet
2025-07-21T11:26:33.613522,013208924a05000000db139143dfdfc2c10152bac0,21,ble_packet
2025-07-21T11:26:33.622303,013208c95a05000000db139143dfdfc2c10152bac0,21,ble_packet
2025-07-21T11:26:33.630237,013208ff6a05000000931891431194c2c1508ab9c0,21,ble_packet
2025-07-21T11:26:33.637991,013208347b05000000931891431194c2c1508ab9c0,21,ble_packet
2025-07-21T11:26:33.645554,0132086a8b05000000931891431194c2c1508ab9c0,21,ble_packet
2025-07-21T11:26:33.651983,013208a09b05000000321e9143ab77c2c10383b8c0,21,ble_packet
2025-07-21T11:26:33.660427,013208d6ab05000000321e9143ab77c2c10383b8c0,21,ble_packet
2025-07-21T11:26:33.668033,0132080cbc05000000002491430068c2c179b2b7c0,21,ble_packet
2025-07-21T11:26:33.677697,01320842cc05000000002491430068c2c179b2b7c0,21,ble_packet
2025-07-21T11:26:33.686145,01320878dc05000000db289143646bc2c1377bb7c0,21,ble_packet
2025-07-21T11:26:33.692767,013208aeec05000000db289143646bc2c1377bb7c0,21,ble_packet
2025-07-21T11:26:33.700437,013208e5fc05000000db289143646bc2c1377bb7c0,21,ble_packet
2025-07-21T11:26:33.706914,0132081a0d06000000122c9143535ac2c1aa80b7c0,21,ble_packet
2025-07-21T11:26:33.714346,013208501d06000000122c9143535ac2c1aa80b7c0,21,ble_packet
2025-07-21T11:26:33.721737,013208872d06000000822f91436c35c2c1d889b7c0,21,ble_packet
2025-07-21T11:26:33.729184,013208bd3d06000000822f91436c35c2c1d889b7c0,21,ble_packet
2025-07-21T11:26:33.736759,013208f34d06000000822f91436c35c2c1d889b7c0,21,ble_packet
2025-07-21T11:26:33.742946,013208285e06000000c431914385f2c1c11d7db7c0,21,ble_packet
2025-07-21T11:26:33.750463,0132085f6e06000000c431914385f2c1c11d7db7c0,21,ble_packet
2025-07-21T11:26:33.757038,013208957e0600000016349143d687c1c1a209b7c0,21,ble_packet
2025-07-21T11:26:33.764671,013208cb8e0600000016349143d687c1c1a209b7c0,21,ble_packet
2025-07-21T11:26:33.771385,013208019f06000000a7369143b411c1c1f784b6c0,21,ble_packet
2025-07-21T11:26:33.780754,01320837af06000000a7369143b411c1c1f784b6c0,21,ble_packet
2025-07-21T11:26:33.789631,0132086cbf06000000a7369143b411c1c1f784b6c0,21,ble_packet
2025-07-21T11:26:33.797156,013208a3cf06000000c63891433b82c0c12832b6c0,21,ble_packet
2025-07-21T11:26:33.805298,013208d9df06000000c63891433b82c0c12832b6c0,21,ble_packet
2025-07-21T11:26:33.812827,0132080ef006000000123991435502c0c1d86bb6c0,21,ble_packet
2025-07-21T11:26:33.822051,013208440007000000123991435502c0c1d86bb6c0,21,ble_packet
2025-07-21T11:26:33.829711,0132087a1007000000123991435502c0c1d86bb6c0,21,ble_packet
2025-07-21T11:26:33.837580,013208b120070000008d379143dfb5bfc1e243b7c0,21,ble_packet
2025-07-21T11:26:33.847076,013208e630070000008d379143dfb5bfc1e243b7c0,21,ble_packet
2025-07-21T11:26:33.855037,0132081d410700000097369143f665bfc13ad8b7c0,21,ble_packet
2025-07-21T11:26:33.863936,01320852510700000097369143f665bfc13ad8b7c0,21,ble_packet
2025-07-21T11:26:33.871541,013208886107000000ea3591438123bfc1ac16b8c0,21,ble_packet
2025-07-21T11:26:33.880424,013208bf7107000000ea3591438123bfc1ac16b8c0,21,ble_packet
2025-07-21T11:26:33.889011,013208f48107000000ea3591438123bfc1ac16b8c0,21,ble_packet
2025-07-21T11:26:33.896455,0132082a9207000000363491430218bfc17ff5b8c0,21,ble_packet
2025-07-21T11:26:33.906743,01320861a207000000363491430218bfc17ff5b8c0,21,ble_packet
2025-07-21T11:26:33.915760,01320896b2070000004d3291430913bfc18cfeb9c0,21,ble_packet
2025-07-21T11:26:33.925079,013208ccc2070000004d3291430913bfc18cfeb9c0,21,ble_packet
2025-07-21T11:26:33.932989,01320803d3070000004d3291430913bfc18cfeb9c0,21,ble_packet
2025-07-21T11:26:33.944072,01320838e307000000c1309143ab0cbfc10eb5bac0,21,ble_packet
2025-07-21T11:26:33.953335,0132086ef307000000c1309143ab0cbfc10eb5bac0,21,ble_packet
2025-07-21T11:26:33.960777,013208a40308000000a32e9143fa1fbfc1a66ebbc0,21,ble_packet
2025-07-21T11:26:33.969529,013208db1308000000a32e9143fa1fbfc1a66ebbc0,21,ble_packet
2025-07-21T11:26:33.977070,0132081024080000001e2c91438143bfc1d064bcc0,21,ble_packet
2025-07-21T11:26:33.984818,0132084734080000001e2c91438143bfc1d064bcc0,21,ble_packet
2025-07-21T11:26:33.991334,0132087d44080000001e2c91438143bfc1d064bcc0,21,ble_packet
2025-07-21T11:26:33.998058,013208b35408000000a32891430c83bfc1cb74bdc0,21,ble_packet
2025-07-21T11:26:34.005456,013208e96408000000a32891430c83bfc1cb74bdc0,21,ble_packet
2025-07-21T11:26:34.012000,0132081f750800000082249143b5b9bfc1af63bec0,21,ble_packet
2025-07-21T11:26:34.019591,01320854850800000082249143b5b9bfc1af63bec0,21,ble_packet
2025-07-21T11:26:34.026153,0132088b950800000082249143b5b9bfc1af63bec0,21,ble_packet
2025-07-21T11:26:34.033657,013208c0a5080000005c21914386b4bfc1f1f9bec0,21,ble_packet
2025-07-21T11:26:34.041130,013208f7b5080000005c21914386b4bfc1f1f9bec0,21,ble_packet
2025-07-21T11:26:34.047624,0132082dc608000000251f9143a4adbfc1d76ebfc0,21,ble_packet
2025-07-21T11:26:34.055020,01320862d608000000251f9143a4adbfc1d76ebfc0,21,ble_packet
2025-07-21T11:26:34.061505,01320898e608000000251f9143a4adbfc1d76ebfc0,21,ble_packet
2025-07-21T11:26:34.068848,013208cff608000000a21d9143c9aebfc16ebabfc0,21,ble_packet
2025-07-21T11:26:34.075316,013208040709000000a21d9143c9aebfc16ebabfc0,21,ble_packet
2025-07-21T11:26:34.083961,0132083a1709000000521c914337b6bfc10631c0c0,21,ble_packet
2025-07-21T11:26:34.092647,013208712709000000521c914337b6bfc10631c0c0,21,ble_packet
2025-07-21T11:26:34.100519,013208a73709000000f61a914343c6bfc1278fc0c0,21,ble_packet
2025-07-21T11:26:34.108151,013208dc4709000000f61a914343c6bfc1278fc0c0,21,ble_packet
2025-07-21T11:26:34.114740,013208125809000000f61a914343c6bfc1278fc0c0,21,ble_packet
2025-07-21T11:26:34.122471,013208486809000000e11991435dd6bfc14504c1c0,21,ble_packet
2025-07-21T11:26:34.128908,0132087f7809000000e11991435dd6bfc14504c1c0,21,ble_packet
2025-07-21T11:26:34.135640,013208b588090000004a1991435eecbfc1866fc1c0,21,ble_packet
2025-07-21T11:26:34.142060,013208eb98090000004a1991435eecbfc1866fc1c0,21,ble_packet
2025-07-21T11:26:34.147797,01320821a9090000004a1991435eecbfc1866fc1c0,21,ble_packet
2025-07-21T11:26:34.154931,01320857b9090000001e19914378ffbfc16ab5c1c0,21,ble_packet
2025-07-21T11:26:34.160636,0132088cc9090000001e19914378ffbfc16ab5c1c0,21,ble_packet
2025-07-21T11:26:34.167121,013208c3d909000000991891439b29c0c13cecc1c0,21,ble_packet
2025-07-21T11:26:34.172544,013208f8e909000000991891439b29c0c13cecc1c0,21,ble_packet
2025-07-21T11:26:34.178933,0132082efa090000004a189143fb54c0c1a32ec2c0,21,ble_packet
2025-07-21T11:26:34.186493,013208650a0a0000004a189143fb54c0c1a32ec2c0,21,ble_packet
2025-07-21T11:26:34.192840,0132089a1a0a0000004a189143fb54c0c1a32ec2c0,21,ble_packet
2025-07-21T11:26:34.200476,013208d02a0a000000df179143ef88c0c1060ac3c0,21,ble_packet
2025-07-21T11:26:34.209172,013208073b0a000000df179143ef88c0c1060ac3c0,21,ble_packet
2025-07-21T11:26:34.220072,0132083c4b0a0000009717914346afc0c1da0fc4c0,21,ble_packet
2025-07-21T11:26:34.227823,013208725b0a0000009717914346afc0c1da0fc4c0,21,ble_packet
2025-07-21T11:26:34.235436,013208a96b0a0000009717914346afc0c1da0fc4c0,21,ble_packet
2025-07-21T11:26:34.243014,013208df7b0a000000fd1691433dccc0c17402c5c0,21,ble_packet
2025-07-21T11:26:34.250109,013208148c0a000000fd1691433dccc0c17402c5c0,21,ble_packet
2025-07-21T11:26:34.258249,0132084a9c0a000000e21591439de8c0c168e9c5c0,21,ble_packet
2025-07-21T11:26:34.264312,01320881ac0a000000e21591439de8c0c168e9c5c0,21,ble_packet
2025-07-21T11:26:34.271054,013208b7bc0a0000004214914303fcc0c167d1c6c0,21,ble_packet
2025-07-21T11:26:34.282122,013208eccc0a0000004214914303fcc0c167d1c6c0,21,ble_packet
2025-07-21T11:26:34.289336,01320822dd0a0000004214914303fcc0c167d1c6c0,21,ble_packet
2025-07-21T11:26:34.297414,01320858ed0a0000001a1291439e0cc1c1939ec7c0,21,ble_packet
2025-07-21T11:26:34.303365,0132088efd0a0000001a1291439e0cc1c1939ec7c0,21,ble_packet
2025-07-21T11:26:34.310221,013208c50d0b000000701091436225c1c1820bc8c0,21,ble_packet
2025-07-21T11:26:34.315446,013208fa1d0b000000701091436225c1c1820bc8c0,21,ble_packet
2025-07-21T11:26:34.321225,013208312e0b000000701091436225c1c1820bc8c0,21,ble_packet
2025-07-21T11:26:34.327559,013208673e0b000000f00d91438352c1c1cde2c8c0,21,ble_packet
2025-07-21T11:26:34.332377,0132089c4e0b000000f00d91438352c1c1cde2c8c0,21,ble_packet
2025-07-21T11:26:34.338252,013208d25e0b000000160c9143027cc1c18ad4c9c0,21,ble_packet
2025-07-21T11:26:34.344112,013208086f0b000000160c9143027cc1c18ad4c9c0,21,ble_packet
2025-07-21T11:26:34.351699,0132083e7f0b000000b00a914369a9c1c17218cbc0,21,ble_packet
2025-07-21T11:26:34.357966,013208758f0b000000b00a914369a9c1c17218cbc0,21,ble_packet
2025-07-21T11:26:34.363060,013208ab9f0b000000b00a914369a9c1c17218cbc0,21,ble_packet
2025-07-21T11:26:34.368918,013208e0af0b00000014089143e8f1c1c1676acdc0,21,ble_packet
2025-07-21T11:26:34.373724,01320816c00b00000014089143e8f1c1c1676acdc0,21,ble_packet
2025-07-21T11:26:34.379268,0132084cd00b000000c9049143a646c2c18e7dd0c0,21,ble_packet
2025-07-21T11:26:34.383798,01320882e00b000000c9049143a646c2c18e7dd0c0,21,ble_packet
2025-07-21T11:26:34.389279,013208b8f00b000000c9049143a646c2c18e7dd0c0,21,ble_packet
2025-07-21T11:26:34.394747,013208ee000c000000ee0091431aa5c2c1e619d4c0,21,ble_packet
2025-07-21T11:26:34.399239,01320824110c000000ee0091431aa5c2c1e619d4c0,21,ble_packet
2025-07-21T11:26:34.404896,0132085a210c00000047fc9043e414c3c1aabad7c0,21,ble_packet
2025-07-21T11:26:34.409420,01320890310c00000047fc9043e414c3c1aabad7c0,21,ble_packet
2025-07-21T11:26:34.415629,013208c7410c00000047fc9043e414c3c1aabad7c0,21,ble_packet
2025-07-21T11:26:34.420036,013208fc510c00000055f79043e37dc3c11a36dbc0,21,ble_packet
2025-07-21T11:26:34.425561,01320832620c00000055f79043e37dc3c11a36dbc0,21,ble_packet
2025-07-21T11:26:34.430952,01320868720c0000003df490436ed2c3c16b9ddfc0,21,ble_packet
2025-07-21T11:26:34.435458,0132089f820c0000003df490436ed2c3c16b9ddfc0,21,ble_packet
2025-07-21T11:26:34.441288,013208d5920c000000aaf290439fd6c3c1fcffe3c0,21,ble_packet
2025-07-21T11:26:34.446880,0132080aa30c000000aaf290439fd6c3c1fcffe3c0,21,ble_packet
2025-07-21T11:26:34.453581,01320840b30c000000aaf290439fd6c3c1fcffe3c0,21,ble_packet
2025-07-21T11:26:34.460039,01320876c30c000000d5f1904372ddc3c1cc60e5c0,21,ble_packet
2025-07-21T11:26:34.464661,013208acd30c000000d5f1904372ddc3c1cc60e5c0,21,ble_packet
2025-07-21T11:26:34.470122,013208e2e30c000000ddf1904387fec3c13ad8e6c0,21,ble_packet
2025-07-21T11:26:34.474939,01320818f40c000000ddf1904387fec3c13ad8e6c0,21,ble_packet
2025-07-21T11:26:34.480573,0132084e040d000000ddf1904387fec3c13ad8e6c0,21,ble_packet
2025-07-21T11:26:34.485269,01320884140d000000a6f29043e901c4c114e4e7c0,21,ble_packet
2025-07-21T11:26:34.490839,013208ba240d000000a6f29043e901c4c114e4e7c0,21,ble_packet
2025-07-21T11:26:34.496456,013208f0340d00000000f49043f2f8c3c16a48e9c0,21,ble_packet
2025-07-21T11:26:34.502004,01320826450d00000000f49043f2f8c3c16a48e9c0,21,ble_packet
2025-07-21T11:26:34.508347,0132085c550d00000095f690435eccc3c18b8ceac0,21,ble_packet
2025-07-21T11:26:34.512923,01320892650d00000095f690435eccc3c18b8ceac0,21,ble_packet
2025-07-21T11:26:34.518676,013208c8750d00000095f690435eccc3c18b8ceac0,21,ble_packet
2025-07-21T11:26:34.523244,013208fe850d00000054fb9043e8a1c3c17154ecc0,21,ble_packet
2025-07-21T11:26:34.528955,01320835960d00000054fb9043e8a1c3c17154ecc0,21,ble_packet
2025-07-21T11:26:34.534434,0132086ba60d00000065049143d55dc3c18b75edc0,21,ble_packet
2025-07-21T11:26:34.538998,013208a0b60d00000065049143d55dc3c18b75edc0,21,ble_packet
2025-07-21T11:26:34.544563,013208d6c60d00000065049143d55dc3c18b75edc0,21,ble_packet
2025-07-21T11:26:34.549275,0132080cd70d0000008a0f91439f96c3c11080eec0,21,ble_packet
2025-07-21T11:26:34.555125,01320842e70d0000008a0f91439f96c3c11080eec0,21,ble_packet
2025-07-21T11:26:34.559755,01320878f70d0000006d1b9143b34fc4c14501efc0,21,ble_packet
2025-07-21T11:26:34.564125,013208ae070e0000006d1b9143b34fc4c14501efc0,21,ble_packet
2025-07-21T11:26:34.569664,013208e5170e000000ac249143799cc5c154a7edc0,21,ble_packet
2025-07-21T11:26:34.574237,0132081a280e000000ac249143799cc5c154a7edc0,21,ble_packet
2025-07-21T11:26:34.579815,01320850380e000000ac249143799cc5c154a7edc0,21,ble_packet
2025-07-21T11:26:34.584433,01320886480e00000079259143a379c6c10487f2c0,21,ble_packet
2025-07-21T11:26:34.591181,013208bc580e00000079259143a379c6c10487f2c0,21,ble_packet
2025-07-21T11:26:34.597524,013208f2680e000000441b91433f75c7c13df4f8c0,21,ble_packet
2025-07-21T11:26:34.602987,01320828790e000000441b91433f75c7c13df4f8c0,21,ble_packet
2025-07-21T11:26:34.609738,0132085f890e000000441b91433f75c7c13df4f8c0,21,ble_packet
2025-07-21T11:26:34.615258,01320894990e000000bb1a9143f130c7c1f3cc00c1,21,ble_packet
2025-07-21T11:26:34.622885,013208caa90e000000bb1a9143f130c7c1f3cc00c1,21,ble_packet
2025-07-21T11:26:34.629334,01320800ba0e000000441791430214c9c1ecdc07c1,21,ble_packet
2025-07-21T11:26:34.639001,01320836ca0e000000441791430214c9c1ecdc07c1,21,ble_packet
2025-07-21T11:26:34.647719,01328300,4,ble_packet
2025-07-21T12:00:22.764461,01328a,3,ble_packet
2025-07-21T12:00:24.241345,02328a,3,ble_packet
2025-07-21T12:00:24.758945,01328b,3,ble_packet
2025-07-21T12:00:26.287362,01328a,3,ble_packet
2025-07-21T12:00:27.498126,01328301,4,ble_packet
2025-07-21T12:00:27.530703,0132089379000000009d24af4310ca7040122e34c1,21,ble_packet
2025-07-21T12:00:27.555954,0132082d85000000009d24af4310ca7040122e34c1,21,ble_packet
2025-07-21T12:00:27.582391,013208e591000000009d24af4310ca7040122e34c1,21,ble_packet
2025-07-21T12:00:27.592800,0132081ba2000000007122af43da5b4f40e62437c1,21,ble_packet
2025-07-21T12:00:27.645747,01320850b2000000007122af43da5b4f40e62437c1,21,ble_packet
2025-07-21T12:00:27.655197,01320887c20000000048e6ae43d1590c4007b039c1,21,ble_packet
2025-07-21T12:00:27.677376,013208bdd20000000048e6ae43d1590c4007b039c1,21,ble_packet
2025-07-21T12:00:27.686365,013208f3e20000000048e6ae43d1590c4007b039c1,21,ble_packet
2025-07-21T12:00:27.694760,01320829f3000000002782ae43c74e9a3f1d9c39c1,21,ble_packet
2025-07-21T12:00:27.703243,0132085f03010000002782ae43c74e9a3f1d9c39c1,21,ble_packet
2025-07-21T12:00:27.711623,013208951301000000c63eae43144f2a3f95b43dc1,21,ble_packet
2025-07-21T12:00:27.719946,013208ca2301000000c63eae43144f2a3f95b43dc1,21,ble_packet
2025-07-21T12:00:27.727693,013208003401000000c63eae43144f2a3f95b43dc1,21,ble_packet
2025-07-21T12:00:27.737224,013208374401000000c650ae43b298bc3e346645c1,21,ble_packet
2025-07-21T12:00:27.744240,0132086d5401000000c650ae43b298bc3e346645c1,21,ble_packet
2025-07-21T12:00:27.750809,013208a364010000006947ae43a2435f3ece434cc1,21,ble_packet
2025-07-21T12:00:27.758403,013208d974010000006947ae43a2435f3ece434cc1,21,ble_packet
2025-07-21T12:00:27.763739,0132080f85010000006133ae43f1370a3e91d152c1,21,ble_packet
2025-07-21T12:00:27.771332,0132084595010000006133ae43f1370a3e91d152c1,21,ble_packet
2025-07-21T12:00:27.777474,0132087ba5010000006133ae43f1370a3e91d152c1,21,ble_packet
2025-07-21T12:00:27.783944,01328300,4,ble_packet
2025-07-21T12:00:29.105872,0132081481180000006133ae43f1370a3e91d152c1,21,ble_packet
2025-07-21T12:00:29.113663,01328301,4,ble_packet
2025-07-21T12:00:29.135738,013208a678000000006c17ae43f9f725bd8daf57c1,21,ble_packet
2025-07-21T12:00:29.144154,0132082782000000006c17ae43f9f725bd8daf57c1,21,ble_packet
2025-07-21T12:00:29.152694,013208628b000000006c17ae43f9f725bd8daf57c1,21,ble_packet
2025-07-21T12:00:29.160079,0132089a9b0000000012f8ad43a4a33bbeefad5cc1,21,ble_packet
2025-07-21T12:00:29.167543,013208cdab0000000012f8ad43a4a33bbeefad5cc1,21,ble_packet
2025-07-21T12:00:29.174154,01320804bc0000000012f8ad43a4a33bbeefad5cc1,21,ble_packet
2025-07-21T12:00:29.182996,0132083acc00000000ead8ad431c8231be8d2264c1,21,ble_packet
2025-07-21T12:00:29.191035,0132086fdc00000000ead8ad431c8231be8d2264c1,21,ble_packet
2025-07-21T12:00:29.198495,013208a5ec00000000c585ad4394288cbd2dff6bc1,21,ble_packet
2025-07-21T12:00:29.205902,013208dbfc00000000c585ad4394288cbd2dff6bc1,21,ble_packet
2025-07-21T12:00:29.212242,013208110d01000000c585ad4394288cbd2dff6bc1,21,ble_packet
2025-07-21T12:00:29.220007,013208481d01000000b66cad433a49933de95770c1,21,ble_packet
2025-07-21T12:00:29.226544,0132087e2d01000000b66cad433a49933de95770c1,21,ble_packet
2025-07-21T12:00:29.233630,013208b43d010000004b62ad43ee423f3e760773c1,21,ble_packet
2025-07-21T12:00:29.241200,013208e94d010000004b62ad43ee423f3e760773c1,21,ble_packet
2025-07-21T12:00:29.248122,0132081f5e010000004b62ad43ee423f3e760773c1,21,ble_packet
2025-07-21T12:00:29.255664,013208566e01000000cb67ad4388e6243e1fb772c1,21,ble_packet
2025-07-21T12:00:29.262421,0132088b7e01000000cb67ad4388e6243e1fb772c1,21,ble_packet
2025-07-21T12:00:29.269745,013208c28e01000000d16aad435cc2f23d1c1c71c1,21,ble_packet
2025-07-21T12:00:29.275148,013208f89e01000000d16aad435cc2f23d1c1c71c1,21,ble_packet
2025-07-21T12:00:29.281832,0132082eaf01000000176fad4310296d3d737e6fc1,21,ble_packet
2025-07-21T12:00:29.288584,01320863bf01000000176fad4310296d3d737e6fc1,21,ble_packet
2025-07-21T12:00:29.294630,0132089acf01000000176fad4310296d3d737e6fc1,21,ble_packet
2025-07-21T12:00:29.301590,013208d0df010000005477ad439deed2bc25ff6dc1,21,ble_packet
2025-07-21T12:00:29.307148,01320805f0010000005477ad439deed2bc25ff6dc1,21,ble_packet
2025-07-21T12:00:29.314444,0132083c00020000001b88ad436cfc2ebe3a6a6cc1,21,ble_packet
2025-07-21T12:00:29.322152,0132087110020000001b88ad436cfc2ebe3a6a6cc1,21,ble_packet
2025-07-21T12:00:29.328738,013208a720020000001b88ad436cfc2ebe3a6a6cc1,21,ble_packet
2025-07-21T12:00:29.336680,013208dd300200000002a9ad4396eac9bea0886bc1,21,ble_packet
2025-07-21T12:00:29.343075,01320813410200000002a9ad4396eac9bea0886bc1,21,ble_packet
2025-07-21T12:00:29.350739,013208495102000000d7bead439d3c0bbfd4076bc1,21,ble_packet
2025-07-21T12:00:29.357264,0132087f6102000000d7bead439d3c0bbfd4076bc1,21,ble_packet
2025-07-21T12:00:29.364004,013208b5710200000036cdad432efc24bfeade6ac1,21,ble_packet
2025-07-21T12:00:29.371517,013208eb810200000036cdad432efc24bfeade6ac1,21,ble_packet
2025-07-21T12:00:29.377991,01320821920200000036cdad432efc24bfeade6ac1,21,ble_packet
2025-07-21T12:00:29.385891,01320858a202000000c6d6ad439fc332bf0cae6ac1,21,ble_packet
2025-07-21T12:00:29.392484,0132088db202000000c6d6ad439fc332bf0cae6ac1,21,ble_packet
2025-07-21T12:00:29.399810,013208c4c202000000bbdbad43d4763dbf93f269c1,21,ble_packet
2025-07-21T12:00:29.406359,013208f9d202000000bbdbad43d4763dbf93f269c1,21,ble_packet
2025-07-21T12:00:29.414332,0132082fe302000000bbdbad43d4763dbf93f269c1,21,ble_packet
2025-07-21T12:00:29.422272,01320866f3020000001de5ad436c5e49bf579d69c1,21,ble_packet
2025-07-21T12:00:29.427694,0132089c03030000001de5ad436c5e49bf579d69c1,21,ble_packet
2025-07-21T12:00:29.434094,013208d1130300000044f0ad432c0c51bf81ed69c1,21,ble_packet
2025-07-21T12:00:29.439733,01320808240300000044f0ad432c0c51bf81ed69c1,21,ble_packet
2025-07-21T12:00:29.446168,0132083d3403000000cff7ad43dfe755bfe8566ac1,21,ble_packet
2025-07-21T12:00:29.461091,013208734403000000cff7ad43dfe755bfe8566ac1,21,ble_packet
2025-07-21T12:00:29.466933,013208a95403000000cff7ad43dfe755bfe8566ac1,21,ble_packet
2025-07-21T12:00:29.473307,013208df6403000000a8f8ad43f2e44dbf895e6bc1,21,ble_packet
2025-07-21T12:00:29.478772,013208157503000000a8f8ad43f2e44dbf895e6bc1,21,ble_packet
2025-07-21T12:00:29.485900,0132084b850300000006f6ad43971c47bffe146cc1,21,ble_packet
2025-07-21T12:00:29.493688,01320882950300000006f6ad43971c47bffe146cc1,21,ble_packet
2025-07-21T12:00:29.502198,013208b7a50300000006f6ad43971c47bffe146cc1,21,ble_packet
2025-07-21T12:00:29.511379,013208eeb50300000032f2ad43e1c83fbf05996cc1,21,ble_packet
2025-07-21T12:00:29.519726,01320826c60300000032f2ad43e1c83fbf05996cc1,21,ble_packet
2025-07-21T12:00:29.529887,0132085ad603000000c3ebad43ff9633bf92956dc1,21,ble_packet
2025-07-21T12:00:29.539387,01320890e603000000c3ebad43ff9633bf92956dc1,21,ble_packet
2025-07-21T12:00:29.549645,013208c6f603000000c3ebad43ff9633bf92956dc1,21,ble_packet
2025-07-21T12:00:29.558814,013208fb060400000085e5ad4356b526bf94df6ec1,21,ble_packet
2025-07-21T12:00:29.568527,01320831170400000085e5ad4356b526bf94df6ec1,21,ble_packet
2025-07-21T12:00:29.576988,01320868270400000006e0ad43e06e1abfa23070c1,21,ble_packet
2025-07-21T12:00:29.586625,0132089d370400000006e0ad43e06e1abfa23070c1,21,ble_packet
2025-07-21T12:00:29.597747,013208d34704000000e1dcad4306f611bf585f71c1,21,ble_packet
2025-07-21T12:00:29.607442,0132080a5804000000e1dcad4306f611bf585f71c1,21,ble_packet
2025-07-21T12:00:29.619399,0132083f6804000000e1dcad4306f611bf585f71c1,21,ble_packet
2025-07-21T12:00:29.630807,013208757804000000b3dbad43e8690ebf7a6c72c1,21,ble_packet
2025-07-21T12:00:29.640116,013208ab8804000000b3dbad43e8690ebf7a6c72c1,21,ble_packet
2025-07-21T12:00:29.648865,013208e1980400000097d9ad43dfc00bbff90e73c1,21,ble_packet
2025-07-21T12:00:29.658687,01320817a90400000097d9ad43dfc00bbff90e73c1,21,ble_packet
2025-07-21T12:00:29.671072,0132084db90400000097d9ad43dfc00bbff90e73c1,21,ble_packet
2025-07-21T12:00:29.681177,01320883c90400000086d5ad4356dd05bf2c5574c1,21,ble_packet
2025-07-21T12:00:29.695410,013208b9d90400000086d5ad4356dd05bf2c5574c1,21,ble_packet
2025-07-21T12:00:29.707494,013208f0e90400000049d1ad437105fbbe0b5d75c1,21,ble_packet
2025-07-21T12:00:29.716373,01320826fa0400000049d1ad437105fbbe0b5d75c1,21,ble_packet
2025-07-21T12:00:29.725316,0132085b0a0500000061cdad4350a0e8be7dac76c1,21,ble_packet
2025-07-21T12:00:29.732041,013208921a0500000061cdad4350a0e8be7dac76c1,21,ble_packet
2025-07-21T12:00:29.740122,013208c72a0500000061cdad4350a0e8be7dac76c1,21,ble_packet
2025-07-21T12:00:29.746544,013208fd3a05000000ecc1ad438350cbbe8fdc78c1,21,ble_packet
2025-07-21T12:00:29.753903,013208334b05000000ecc1ad438350cbbe8fdc78c1,21,ble_packet
2025-07-21T12:00:29.761248,013208695b05000000b1b8ad43cf41aebe2c377ac1,21,ble_packet
2025-07-21T12:00:29.768271,013208a06b05000000b1b8ad43cf41aebe2c377ac1,21,ble_packet
2025-07-21T12:00:29.775798,013208d57b05000000b1b8ad43cf41aebe2c377ac1,21,ble_packet
2025-07-21T12:00:29.782511,0132080b8c0500000022aead43780291bee2927bc1,21,ble_packet
2025-07-21T12:00:29.790703,013208419c0500000022aead43780291bee2927bc1,21,ble_packet
2025-07-21T12:00:29.798456,01320877ac05000000a19aad43989551be7fb37cc1,21,ble_packet
2025-07-21T12:00:29.804343,013208adbc05000000a19aad43989551be7fb37cc1,21,ble_packet
2025-07-21T12:00:29.811277,013208e3cc050000006f8aad43eee606bee30f7dc1,21,ble_packet
2025-07-21T12:00:29.819381,0132081add050000006f8aad43eee606bee30f7dc1,21,ble_packet
2025-07-21T12:00:29.828118,0132084fed050000006f8aad43eee606bee30f7dc1,21,ble_packet
2025-07-21T12:00:29.835859,01320885fd050000007a82ad43c678a1bd97997cc1,21,ble_packet
2025-07-21T12:00:29.843626,013208bb0d060000007a82ad43c678a1bd97997cc1,21,ble_packet
2025-07-21T12:00:29.851476,013208f11d060000009e7bad4316ae48bd9d277cc1,21,ble_packet
2025-07-21T12:00:29.857052,013208272e060000009e7bad4316ae48bd9d277cc1,21,ble_packet
2025-07-21T12:00:29.863847,0132085d3e060000009e7bad4316ae48bd9d277cc1,21,ble_packet
2025-07-21T12:00:29.869291,013208944e060000007f86ad430b8f53bd13c77ac1,21,ble_packet
2025-07-21T12:00:29.876169,013208ca5e060000007f86ad430b8f53bd13c77ac1,21,ble_packet
2025-07-21T12:00:29.881588,013208ff6e06000000fd99ad43e04797bd4bbf79c1,21,ble_packet
2025-07-21T12:00:29.890179,013208367f06000000fd99ad43e04797bd4bbf79c1,21,ble_packet
2025-07-21T12:00:29.898509,0132086b8f060000003eaaad43a708aabd5aae79c1,21,ble_packet
2025-07-21T12:00:29.905702,013208a19f060000003eaaad43a708aabd5aae79c1,21,ble_packet
2025-07-21T12:00:29.913255,013208d7af060000003eaaad43a708aabd5aae79c1,21,ble_packet
2025-07-21T12:00:29.919734,0132080dc0060000007aa4ad43d9212abdbb3179c1,21,ble_packet
2025-07-21T12:00:29.927475,01320844d0060000007aa4ad43d9212abdbb3179c1,21,ble_packet
2025-07-21T12:00:29.934181,0132087ae0060000000c99ad432bbe0bbd52a677c1,21,ble_packet
2025-07-21T12:00:29.941316,013208b2f0060000000c99ad432bbe0bbd52a677c1,21,ble_packet
2025-07-21T12:00:29.949577,013208e600070000000c99ad432bbe0bbd52a677c1,21,ble_packet
2025-07-21T12:00:29.955964,0132081c11070000004badad43dfc5b3bd65cd74c1,21,ble_packet
2025-07-21T12:00:29.963445,0132085121070000004badad43dfc5b3bd65cd74c1,21,ble_packet
2025-07-21T12:00:29.970332,01320887310700000089ccad4395cc1abe352c73c1,21,ble_packet
2025-07-21T12:00:29.978363,013208bd410700000089ccad4395cc1abe352c73c1,21,ble_packet
2025-07-21T12:00:29.986221,013208f3510700000089ccad4395cc1abe352c73c1,21,ble_packet
2025-07-21T12:00:29.993138,0132082a620700000024eead43046668be744f72c1,21,ble_packet
2025-07-21T12:00:30.001285,0132085f720700000024eead43046668be744f72c1,21,ble_packet
2025-07-21T12:00:30.008304,0132089582070000006b04ae43989688be45b670c1,21,ble_packet
2025-07-21T12:00:30.016255,013208cc92070000006b04ae43989688be45b670c1,21,ble_packet
2025-07-21T12:00:30.022991,01320802a3070000002e11ae431d3a94beaffe6ec1,21,ble_packet
2025-07-21T12:00:30.031457,01320837b3070000002e11ae431d3a94beaffe6ec1,21,ble_packet
2025-07-21T12:00:30.039157,0132086dc3070000002e11ae431d3a94beaffe6ec1,21,ble_packet
2025-07-21T12:00:30.046364,013208a3d3070000007d1aae43db8a94be84486dc1,21,ble_packet
2025-07-21T12:00:30.053990,013208d9e3070000007d1aae43db8a94be84486dc1,21,ble_packet
2025-07-21T12:00:30.060399,0132080ff4070000006325ae43e0a693be4f9e6bc1,21,ble_packet
2025-07-21T12:00:30.068287,0132084504080000006325ae43e0a693be4f9e6bc1,21,ble_packet
2025-07-21T12:00:30.074458,0132087b14080000006325ae43e0a693be4f9e6bc1,21,ble_packet
2025-07-21T12:00:30.080097,013208b124080000007737ae4369529fbee82f6ac1,21,ble_packet
2025-07-21T12:00:30.086916,013208e734080000007737ae4369529fbee82f6ac1,21,ble_packet
2025-07-21T12:00:30.092837,0132081d4508000000764cae4330fdaabe7e9d68c1,21,ble_packet
2025-07-21T12:00:30.099450,013208535508000000764cae4330fdaabe7e9d68c1,21,ble_packet
2025-07-21T12:00:30.105254,013208896508000000c861ae4394f7b9be445867c1,21,ble_packet
2025-07-21T12:00:30.112164,013208bf7508000000c861ae4394f7b9be445867c1,21,ble_packet
2025-07-21T12:00:30.118736,013208f58508000000c861ae4394f7b9be445867c1,21,ble_packet
2025-07-21T12:00:30.124388,0132082c9608000000db73ae431f5ac6be74f266c1,21,ble_packet
2025-07-21T12:00:30.130378,01320862a608000000db73ae431f5ac6be74f266c1,21,ble_packet
2025-07-21T12:00:30.135086,01320897b608000000357fae43779fc8be533767c1,21,ble_packet
2025-07-21T12:00:30.140994,013208cdc608000000357fae43779fc8be533767c1,21,ble_packet
2025-07-21T12:00:30.145656,01320803d708000000357fae43779fc8be533767c1,21,ble_packet
2025-07-21T12:00:30.152320,01320839e7080000001b84ae435420bfbe725668c1,21,ble_packet
2025-07-21T12:00:30.159070,0132086ff7080000001b84ae435420bfbe725668c1,21,ble_packet
2025-07-21T12:00:30.164918,013208a607090000008785ae43ce4ab2be6efa69c1,21,ble_packet
2025-07-21T12:00:30.171448,013208db17090000008785ae43ce4ab2be6efa69c1,21,ble_packet
2025-07-21T12:00:30.177112,013208112809000000a682ae432322a4be7c286cc1,21,ble_packet
2025-07-21T12:00:30.183628,013208473809000000a682ae432322a4be7c286cc1,21,ble_packet
2025-07-21T12:00:30.189476,0132087d4809000000a682ae432322a4be7c286cc1,21,ble_packet
2025-07-21T12:00:30.195926,013208b458090000001c7aae43dfad99be9c906ec1,21,ble_packet
2025-07-21T12:00:30.203369,013208ea68090000001c7aae43dfad99be9c906ec1,21,ble_packet
2025-07-21T12:00:30.209101,013208207909000000b170ae4349198dbe808e70c1,21,ble_packet
2025-07-21T12:00:30.215865,013208558909000000b170ae4349198dbe808e70c1,21,ble_packet
2025-07-21T12:00:30.221772,0132088b9909000000b170ae4349198dbe808e70c1,21,ble_packet
2025-07-21T12:00:30.228363,013208c1a909000000d867ae4332d171be331272c1,21,ble_packet
2025-07-21T12:00:30.233962,013208f7b909000000d867ae4332d171be331272c1,21,ble_packet
2025-07-21T12:00:30.239251,0132082dca090000000c62ae4306cc4bbee90773c1,21,ble_packet
2025-07-21T12:00:30.246451,01320864da090000000c62ae4306cc4bbee90773c1,21,ble_packet
2025-07-21T12:00:30.252161,0132089aea09000000b85cae434ca929bed4ad73c1,21,ble_packet
2025-07-21T12:00:30.258793,013208d0fa09000000b85cae434ca929bed4ad73c1,21,ble_packet
2025-07-21T12:00:30.264576,013208050b0a000000b85cae434ca929bed4ad73c1,21,ble_packet
2025-07-21T12:00:30.272121,0132083e1b0a0000007d57ae43c982debda63374c1,21,ble_packet
2025-07-21T12:00:30.277992,013208722b0a0000007d57ae43c982debda63374c1,21,ble_packet
2025-07-21T12:00:30.282632,013208a73b0a000000ca54ae43796c5ebd7fb774c1,21,ble_packet
2025-07-21T12:00:30.288017,013208dd4b0a000000ca54ae43796c5ebd7fb774c1,21,ble_packet
2025-07-21T12:00:30.292807,013208135c0a000000ca54ae43796c5ebd7fb774c1,21,ble_packet
2025-07-21T12:00:30.298494,013208496c0a0000006c5bae43f82cc0bcb35d76c1,21,ble_packet
2025-07-21T12:00:30.305584,013208807c0a0000006c5bae43f82cc0bcb35d76c1,21,ble_packet
2025-07-21T12:00:30.313564,013208b58c0a0000002552ae432f5cd5bd5fcc78c1,21,ble_packet
2025-07-21T12:00:30.319479,013208eb9c0a0000002552ae432f5cd5bd5fcc78c1,21,ble_packet
2025-07-21T12:00:30.324504,01320821ad0a0000002552ae432f5cd5bd5fcc78c1,21,ble_packet
2025-07-21T12:00:30.330392,01320858bd0a0000000e44ae43a9192fbec1cd7ac1,21,ble_packet
2025-07-21T12:00:30.336425,0132088dcd0a0000000e44ae43a9192fbec1cd7ac1,21,ble_packet
2025-07-21T12:00:30.343594,013208c3dd0a000000f13dae43444645be3d2a7cc1,21,ble_packet
2025-07-21T12:00:30.348365,013208f9ed0a000000f13dae43444645be3d2a7cc1,21,ble_packet
2025-07-21T12:00:30.354044,01320830fe0a0000007b3dae43053e3dbea2027dc1,21,ble_packet
2025-07-21T12:00:30.361828,013208650e0b0000007b3dae43053e3dbea2027dc1,21,ble_packet
2025-07-21T12:00:30.368509,0132089b1e0b0000007b3dae43053e3dbea2027dc1,21,ble_packet
2025-07-21T12:00:30.376323,013208d12e0b000000c33dae4328c743be28227dc1,21,ble_packet
2025-07-21T12:00:30.381184,013208073f0b000000c33dae4328c743be28227dc1,21,ble_packet
2025-07-21T12:00:30.388243,0132083e4f0b0000000b3dae4305e25bbea1387dc1,21,ble_packet
2025-07-21T12:00:30.395644,013208735f0b0000000b3dae4305e25bbea1387dc1,21,ble_packet
2025-07-21T12:00:30.401336,013208aa6f0b0000000b3dae4305e25bbea1387dc1,21,ble_packet
2025-07-21T12:00:30.408174,013208df7f0b000000d136ae43fb0986bea6517dc1,21,ble_packet
2025-07-21T12:00:30.414600,01320815900b000000d136ae43fb0986bea6517dc1,21,ble_packet
2025-07-21T12:00:30.422175,0132084ba00b0000009d2fae4344629abef52b7dc1,21,ble_packet
2025-07-21T12:00:30.427892,01320882b00b0000009d2fae4344629abef52b7dc1,21,ble_packet
2025-07-21T12:00:30.435047,013208b7c00b000000332aae43bc97a6be5ed07cc1,21,ble_packet
2025-07-21T12:00:30.441810,013208edd00b000000332aae43bc97a6be5ed07cc1,21,ble_packet
2025-07-21T12:00:30.447672,01320823e10b000000332aae43bc97a6be5ed07cc1,21,ble_packet
2025-07-21T12:00:30.454481,01320859f10b0000004d2aae430a8aadbe583c7cc1,21,ble_packet
2025-07-21T12:00:30.460294,0132088f010c0000004d2aae430a8aadbe583c7cc1,21,ble_packet
2025-07-21T12:00:30.467050,013208c6110c000000262dae434437afbe0ede7bc1,21,ble_packet
2025-07-21T12:00:30.472698,013208fb210c000000262dae434437afbe0ede7bc1,21,ble_packet
2025-07-21T12:00:30.479757,01320832320c000000262dae434437afbe0ede7bc1,21,ble_packet
2025-07-21T12:00:30.486836,01320868420c0000006a2eae43a2e6b7be91b07bc1,21,ble_packet
2025-07-21T12:00:30.492306,0132089d520c0000006a2eae43a2e6b7be91b07bc1,21,ble_packet
2025-07-21T12:00:30.499507,013208d4620c000000d62eae433b78c5bea8ce7bc1,21,ble_packet
2025-07-21T12:00:30.504156,0132080a730c000000d62eae433b78c5bea8ce7bc1,21,ble_packet
2025-07-21T12:00:30.509954,0132083f830c000000fb2fae43601fcdbe3a997cc1,21,ble_packet
2025-07-21T12:00:30.516925,01320875930c000000fb2fae43601fcdbe3a997cc1,21,ble_packet
2025-07-21T12:00:30.522513,013208aba30c000000fb2fae43601fcdbe3a997cc1,21,ble_packet
2025-07-21T12:00:30.529422,013208e1b30c000000d530ae43e09ccbbea9707dc1,21,ble_packet
2025-07-21T12:00:30.534277,01320817c40c000000d530ae43e09ccbbea9707dc1,21,ble_packet
2025-07-21T12:00:30.540142,0132084ed40c0000002830ae432007c7be9e757ec1,21,ble_packet
2025-07-21T12:00:30.545131,01320883e40c0000002830ae432007c7be9e757ec1,21,ble_packet
2025-07-21T12:00:30.551645,013208b9f40c0000002830ae432007c7be9e757ec1,21,ble_packet
2025-07-21T12:00:30.557732,013208f0040d000000162fae437876c4bee5f67ec1,21,ble_packet
2025-07-21T12:00:30.562783,01320826150d000000162fae437876c4bee5f67ec1,21,ble_packet
2025-07-21T12:00:30.568966,0132085c250d000000882bae43e8f2cfbed0267fc1,21,ble_packet
2025-07-21T12:00:30.574091,01320891350d000000882bae43e8f2cfbed0267fc1,21,ble_packet
2025-07-21T12:00:30.580200,013208ca450d000000d429ae43c81dd9be89367fc1,21,ble_packet
2025-07-21T12:00:30.585312,013208fd550d000000d429ae43c81dd9be89367fc1,21,ble_packet
2025-07-21T12:00:30.593181,01320833660d000000d429ae43c81dd9be89367fc1,21,ble_packet
2025-07-21T12:00:30.599145,01320869760d000000df2dae43969ad4be77b27fc1,21,ble_packet
2025-07-21T12:00:30.604225,0132089f860d000000df2dae43969ad4be77b27fc1,21,ble_packet
2025-07-21T12:00:30.610091,013208d6960d0000000734ae437462ccbe0d2c80c1,21,ble_packet
2025-07-21T12:00:30.617444,0132080ba70d0000000734ae437462ccbe0d2c80c1,21,ble_packet
2025-07-21T12:00:30.624884,01320841b70d0000000734ae437462ccbe0d2c80c1,21,ble_packet
2025-07-21T12:00:30.633128,01320878c70d0000002639ae43113fc0be689180c1,21,ble_packet
2025-07-21T12:00:30.639960,013208aed70d0000002639ae43113fc0be689180c1,21,ble_packet
2025-07-21T12:00:30.648282,013208e4e70d0000003b3eae435c8eb3be6bbb80c1,21,ble_packet
2025-07-21T12:00:30.655568,01320819f80d0000003b3eae435c8eb3be6bbb80c1,21,ble_packet
2025-07-21T12:00:30.664116,0132084f080e0000003b3eae435c8eb3be6bbb80c1,21,ble_packet
2025-07-21T12:00:30.670991,01320885180e000000a53fae43d2adb6bee8d280c1,21,ble_packet
2025-07-21T12:00:30.679257,013208bb280e000000a53fae43d2adb6bee8d280c1,21,ble_packet
2025-07-21T12:00:30.687625,013208f1380e0000005b41ae43e5cfb9be0cee80c1,21,ble_packet
2025-07-21T12:00:30.695529,01320827490e0000005b41ae43e5cfb9be0cee80c1,21,ble_packet
2025-07-21T12:00:30.703801,0132085d590e0000003243ae43451dbcbe4cfb80c1,21,ble_packet
2025-07-21T12:00:30.711598,01320894690e0000003243ae43451dbcbe4cfb80c1,21,ble_packet
2025-07-21T12:00:30.720272,013208c9790e0000003243ae43451dbcbe4cfb80c1,21,ble_packet
2025-07-21T12:00:30.727679,013208ff890e000000a740ae43696bcabe6fde80c1,21,ble_packet
2025-07-21T12:00:30.735347,013208359a0e000000a740ae43696bcabe6fde80c1,21,ble_packet
2025-07-21T12:00:30.743259,0132086baa0e0000007c3bae437c62dcbed8c880c1,21,ble_packet
2025-07-21T12:00:30.749294,013208a2ba0e0000007c3bae437c62dcbed8c880c1,21,ble_packet
2025-07-21T12:00:30.756475,013208d8ca0e0000007c3bae437c62dcbed8c880c1,21,ble_packet
2025-07-21T12:00:30.762609,0132080ddb0e000000f238ae43d291e2bedf9980c1,21,ble_packet
2025-07-21T12:00:30.770148,01320844eb0e000000f238ae43d291e2bedf9980c1,21,ble_packet
2025-07-21T12:00:30.777219,01320879fb0e000000b137ae438210e6be2c5e80c1,21,ble_packet
2025-07-21T12:00:30.783643,013208af0b0f000000b137ae438210e6be2c5e80c1,21,ble_packet
2025-07-21T12:00:30.791475,013208e51b0f000000f437ae433b66e6be3bd27fc1,21,ble_packet
2025-07-21T12:00:30.797521,0132081b2c0f000000f437ae433b66e6be3bd27fc1,21,ble_packet
2025-07-21T12:00:30.803770,013208523c0f000000f437ae433b66e6be3bd27fc1,21,ble_packet
2025-07-21T12:00:30.808620,013208874c0f000000c038ae43fc3aeabed2a17ec1,21,ble_packet
2025-07-21T12:00:30.824388,013208be5c0f000000c038ae43fc3aeabed2a17ec1,21,ble_packet
2025-07-21T12:00:30.834115,013208f36c0f000000bd39ae436b89efbec9c27dc1,21,ble_packet
2025-07-21T12:00:30.838922,0132082a7d0f000000bd39ae436b89efbec9c27dc1,21,ble_packet
2025-07-21T12:00:30.844963,0132085f8d0f000000bd39ae436b89efbec9c27dc1,21,ble_packet
2025-07-21T12:00:30.850003,013208959d0f0000009a3cae437007ecbede897dc1,21,ble_packet
2025-07-21T12:00:30.855460,013208cbad0f0000009a3cae437007ecbede897dc1,21,ble_packet
2025-07-21T12:00:30.860151,01320801be0f0000001e3fae4329ece6bea0777dc1,21,ble_packet
2025-07-21T12:00:30.867160,01320837ce0f0000001e3fae4329ece6bea0777dc1,21,ble_packet
2025-07-21T12:00:30.873133,0132086ede0f000000ff40ae43d7badfbe2e307dc1,21,ble_packet
2025-07-21T12:00:30.878820,013208a4ee0f000000ff40ae43d7badfbe2e307dc1,21,ble_packet
2025-07-21T12:00:30.890017,013208d9fe0f000000ff40ae43d7badfbe2e307dc1,21,ble_packet
2025-07-21T12:00:30.898276,013208100f100000001242ae438ebed6be18d17cc1,21,ble_packet
2025-07-21T12:00:30.905864,013208451f100000001242ae438ebed6be18d17cc1,21,ble_packet
2025-07-21T12:00:30.910707,0132087c2f100000005541ae431131d7be00897cc1,21,ble_packet
2025-07-21T12:00:30.916743,013208b13f100000005541ae431131d7be00897cc1,21,ble_packet
2025-07-21T12:00:30.923812,013208e74f100000005541ae431131d7be00897cc1,21,ble_packet
2025-07-21T12:00:30.929807,0132081e6010000000d440ae43950fe1befca67cc1,21,ble_packet
2025-07-21T12:00:30.936938,013208567010000000d440ae43950fe1befca67cc1,21,ble_packet
2025-07-21T12:00:30.942689,0132088a8010000000dd41ae4339c6e0be0ff97cc1,21,ble_packet
2025-07-21T12:00:30.948498,013208bf9010000000dd41ae4339c6e0be0ff97cc1,21,ble_packet
2025-07-21T12:00:30.954060,013208f5a010000000dd41ae4339c6e0be0ff97cc1,21,ble_packet
2025-07-21T12:00:30.958973,0132082bb1100000004443ae43ed9ae1be303a7dc1,21,ble_packet
2025-07-21T12:00:30.965176,01320862c1100000004443ae43ed9ae1be303a7dc1,21,ble_packet
2025-07-21T12:00:30.970116,01320898d110000000e044ae43b58bdebef41f7dc1,21,ble_packet
2025-07-21T12:00:30.975846,013208cde110000000e044ae43b58bdebef41f7dc1,21,ble_packet
2025-07-21T12:00:30.980955,01320803f2100000005e46ae4350a9d2be16c17cc1,21,ble_packet
2025-07-21T12:00:30.987508,0132083902110000005e46ae4350a9d2be16c17cc1,21,ble_packet
2025-07-21T12:00:30.993751,0132086f12110000005e46ae4350a9d2be16c17cc1,21,ble_packet
2025-07-21T12:00:30.998957,013208a522110000003048ae4343a6c9bed95b7cc1,21,ble_packet
2025-07-21T12:00:31.004807,013208db32110000003048ae4343a6c9bed95b7cc1,21,ble_packet
2025-07-21T12:00:31.009833,0132081143110000005249ae43941cc5be11537cc1,21,ble_packet
2025-07-21T12:00:31.015783,0132084753110000005249ae43941cc5be11537cc1,21,ble_packet
2025-07-21T12:00:31.020428,0132087d63110000005249ae43941cc5be11537cc1,21,ble_packet
2025-07-21T12:00:31.025024,013208b373110000008749ae4383c7bdbe3d017cc1,21,ble_packet
2025-07-21T12:00:31.032312,013208e983110000008749ae4383c7bdbe3d017cc1,21,ble_packet
2025-07-21T12:00:31.038756,013208209411000000354aae433c8ebdbe37f47bc1,21,ble_packet
2025-07-21T12:00:31.047143,01320855a411000000354aae433c8ebdbe37f47bc1,21,ble_packet
2025-07-21T12:00:31.054278,0132088bb411000000164bae43e328c5be4c467cc1,21,ble_packet
2025-07-21T12:00:31.061368,013208c2c411000000164bae43e328c5be4c467cc1,21,ble_packet
2025-07-21T12:00:31.066828,013208f7d411000000164bae43e328c5be4c467cc1,21,ble_packet
2025-07-21T12:00:31.073227,0132082de5110000004c4bae432a15c8befc8b7cc1,21,ble_packet
2025-07-21T12:00:31.081234,01320864f5110000004c4bae432a15c8befc8b7cc1,21,ble_packet
2025-07-21T12:00:31.087495,013208990512000000184cae438f01c8be7ef17cc1,21,ble_packet
2025-07-21T12:00:31.093564,013208cf1512000000184cae438f01c8be7ef17cc1,21,ble_packet
2025-07-21T12:00:31.098515,013208052612000000184cae438f01c8be7ef17cc1,21,ble_packet
2025-07-21T12:00:31.105616,0132083c3612000000e14dae439f08c9be807c7dc1,21,ble_packet
2025-07-21T12:00:31.112299,013208714612000000e14dae439f08c9be807c7dc1,21,ble_packet
2025-07-21T12:00:31.117987,013208a756120000009a4dae43e446cdbe8dd57dc1,21,ble_packet
2025-07-21T12:00:31.124817,013208dd66120000009a4dae43e446cdbe8dd57dc1,21,ble_packet
2025-07-21T12:00:31.130056,0132081377120000004c4bae4389bad5beb4d07dc1,21,ble_packet
2025-07-21T12:00:31.136361,0132084a87120000004c4bae4389bad5beb4d07dc1,21,ble_packet
2025-07-21T12:00:31.141516,0132087f97120000004c4bae4389bad5beb4d07dc1,21,ble_packet
2025-07-21T12:00:31.146785,013208b5a712000000674bae430de0d7be91b37dc1,21,ble_packet
2025-07-21T12:00:31.153035,013208ebb712000000674bae430de0d7be91b37dc1,21,ble_packet
2025-07-21T12:00:31.157999,01320821c812000000784cae432ae2d7bed2ce7dc1,21,ble_packet
2025-07-21T12:00:31.164024,01320857d812000000784cae432ae2d7bed2ce7dc1,21,ble_packet
2025-07-21T12:00:31.169077,0132088de812000000784cae432ae2d7bed2ce7dc1,21,ble_packet
2025-07-21T12:00:31.175499,013208c3f812000000334cae43cf98dabe72df7dc1,21,ble_packet
2025-07-21T12:00:31.181149,013208fa0813000000334cae43cf98dabe72df7dc1,21,ble_packet
2025-07-21T12:00:31.188013,0132082f19130000009b4bae43da04dfbe5ded7dc1,21,ble_packet
2025-07-21T12:00:31.194515,0132086629130000009b4bae43da04dfbe5ded7dc1,21,ble_packet
2025-07-21T12:00:31.200105,0132089b3913000000da4bae43d412debecef97dc1,21,ble_packet
2025-07-21T12:00:31.207068,013208d14913000000da4bae43d412debecef97dc1,21,ble_packet
2025-07-21T12:00:31.212327,013208085a13000000da4bae43d412debecef97dc1,21,ble_packet
2025-07-21T12:00:31.218668,0132083e6a13000000314dae432a5adcbe6af27dc1,21,ble_packet
2025-07-21T12:00:31.224972,013208737a13000000314dae432a5adcbe6af27dc1,21,ble_packet
2025-07-21T12:00:31.230552,013208a98a13000000fd4eae43b5f2dabe36f77dc1,21,ble_packet
2025-07-21T12:00:31.238848,013208e19a13000000fd4eae43b5f2dabe36f77dc1,21,ble_packet
2025-07-21T12:00:31.245658,01320815ab13000000fd4eae43b5f2dabe36f77dc1,21,ble_packet
2025-07-21T12:00:31.253649,0132084bbb130000008852ae43d3c3d3be06f27dc1,21,ble_packet
2025-07-21T12:00:31.260226,01320881cb130000008852ae43d3c3d3be06f27dc1,21,ble_packet
2025-07-21T12:00:31.267412,013208b8db130000008956ae438c0ed0be08027ec1,21,ble_packet
2025-07-21T12:00:31.273502,013208edeb130000008956ae438c0ed0be08027ec1,21,ble_packet
2025-07-21T12:00:31.278338,01320823fc130000008956ae438c0ed0be08027ec1,21,ble_packet
2025-07-21T12:00:31.284980,013208590c14000000305aae43869fcfbed21d7ec1,21,ble_packet
2025-07-21T12:00:31.290128,0132088f1c14000000305aae43869fcfbed21d7ec1,21,ble_packet
2025-07-21T12:00:31.296390,013208c52c14000000a55bae438adcd7be54147ec1,21,ble_packet
2025-07-21T12:00:31.301446,013208fb3c14000000a55bae438adcd7be54147ec1,21,ble_packet
2025-07-21T12:00:31.307704,013208324d14000000a95cae43ade4debefe1d7ec1,21,ble_packet
2025-07-21T12:00:31.314736,013208675d14000000a95cae43ade4debefe1d7ec1,21,ble_packet
2025-07-21T12:00:31.320905,0132089d6d14000000a95cae43ade4debefe1d7ec1,21,ble_packet
2025-07-21T12:00:31.327849,013208d47d14000000d35dae434813e3bec7557ec1,21,ble_packet
2025-07-21T12:00:31.333107,013208098e14000000d35dae434813e3bec7557ec1,21,ble_packet
2025-07-21T12:00:31.338833,0132083f9e14000000c65fae43057ce1be0a8d7ec1,21,ble_packet
2025-07-21T12:00:31.345546,01320875ae14000000c65fae43057ce1be0a8d7ec1,21,ble_packet
2025-07-21T12:00:31.351373,013208acbe14000000c65fae43057ce1be0a8d7ec1,21,ble_packet
2025-07-21T12:00:31.358687,013208e1ce14000000b260ae430f52debe10a27ec1,21,ble_packet
2025-07-21T12:00:31.363478,01320817df14000000b260ae430f52debe10a27ec1,21,ble_packet
2025-07-21T12:00:31.369484,0132084def140000003b62ae431837d5beed887ec1,21,ble_packet
2025-07-21T12:00:31.374046,01320883ff140000003b62ae431837d5beed887ec1,21,ble_packet
2025-07-21T12:00:31.380125,013208b90f150000008d63ae433758cfbef9777ec1,21,ble_packet
2025-07-21T12:00:31.386923,013208ef1f150000008d63ae433758cfbef9777ec1,21,ble_packet
2025-07-21T12:00:31.392748,0132082630150000008d63ae433758cfbef9777ec1,21,ble_packet
2025-07-21T12:00:31.399263,0132085b40150000004e65ae438757ccbe31527ec1,21,ble_packet
2025-07-21T12:00:31.403994,0132089250150000004e65ae438757ccbe31527ec1,21,ble_packet
2025-07-21T12:00:31.410192,013208c860150000001567ae43f5c3c8be8d397ec1,21,ble_packet
2025-07-21T12:00:31.414674,013208fd70150000001567ae43f5c3c8be8d397ec1,21,ble_packet
2025-07-21T12:00:31.420685,0132083481150000001567ae43f5c3c8be8d397ec1,21,ble_packet
2025-07-21T12:00:31.426740,013208699115000000fb68ae43146ac4be4d457ec1,21,ble_packet
2025-07-21T12:00:31.432562,0132089fa115000000fb68ae43146ac4be4d457ec1,21,ble_packet
2025-07-21T12:00:31.440009,013208d6b115000000ef6aae43813ac3be3e687ec1,21,ble_packet
2025-07-21T12:00:31.444659,0132080bc215000000ef6aae43813ac3be3e687ec1,21,ble_packet
2025-07-21T12:00:31.450140,01320841d2150000002a6dae43e34ec5be8e737ec1,21,ble_packet
2025-07-21T12:00:31.456166,01320877e2150000002a6dae43e34ec5be8e737ec1,21,ble_packet
2025-07-21T12:00:31.461268,013208adf2150000002a6dae43e34ec5be8e737ec1,21,ble_packet
2025-07-21T12:00:31.467169,013208e30216000000056fae437ccccabe9f637ec1,21,ble_packet
2025-07-21T12:00:31.472734,013208191316000000056fae437ccccabe9f637ec1,21,ble_packet
2025-07-21T12:00:31.479893,0132084f23160000001b71ae43d2c3ccbe5a447ec1,21,ble_packet
2025-07-21T12:00:31.484761,0132088533160000001b71ae43d2c3ccbe5a447ec1,21,ble_packet
2025-07-21T12:00:31.490423,013208bc43160000001b71ae43d2c3ccbe5a447ec1,21,ble_packet
2025-07-21T12:00:31.496078,013208f15316000000a372ae43ad10cbbede227ec1,21,ble_packet
2025-07-21T12:00:31.500756,013208286416000000a372ae43ad10cbbede227ec1,21,ble_packet
2025-07-21T12:00:31.506197,0132085d74160000003673ae4309bed2bec0ef7dc1,21,ble_packet
2025-07-21T12:00:31.511012,0132089484160000003673ae4309bed2bec0ef7dc1,21,ble_packet
2025-07-21T12:00:31.517124,013208c994160000009574ae43ae8fd2be55ab7dc1,21,ble_packet
2025-07-21T12:00:31.521789,013208ffa4160000009574ae43ae8fd2be55ab7dc1,21,ble_packet
2025-07-21T12:00:31.528069,01320836b5160000009574ae43ae8fd2be55ab7dc1,21,ble_packet
2025-07-21T12:00:31.534011,0132086dc5160000002676ae43727bdabe9b757dc1,21,ble_packet
2025-07-21T12:00:31.539030,013208a1d5160000002676ae43727bdabe9b757dc1,21,ble_packet
2025-07-21T12:00:31.545245,013208d7e5160000003478ae43e7f4dfbed1857dc1,21,ble_packet
2025-07-21T12:00:31.550167,0132080df6160000003478ae43e7f4dfbed1857dc1,21,ble_packet
2025-07-21T12:00:31.555538,0132084406170000003478ae43e7f4dfbed1857dc1,21,ble_packet
2025-07-21T12:00:31.559979,013208791617000000a678ae43af31e1be1aa47dc1,21,ble_packet
2025-07-21T12:00:31.564550,013208b02617000000a678ae43af31e1be1aa47dc1,21,ble_packet
2025-07-21T12:00:31.571793,013208e536170000005378ae430ddee1bedf8b7dc1,21,ble_packet
2025-07-21T12:00:31.576718,0132081b47170000005378ae430ddee1bedf8b7dc1,21,ble_packet
2025-07-21T12:00:31.582469,0132085157170000005378ae430ddee1bedf8b7dc1,21,ble_packet
2025-07-21T12:00:31.587327,013208876717000000b279ae432daddebeeb767dc1,21,ble_packet
2025-07-21T12:00:31.593108,013208bd7717000000b279ae432daddebeeb767dc1,21,ble_packet
2025-07-21T12:00:31.598895,013208f38717000000147cae43e378d9be528c7dc1,21,ble_packet
2025-07-21T12:00:31.603954,013208299817000000147cae43e378d9be528c7dc1,21,ble_packet
2025-07-21T12:00:31.609659,01320860a817000000597eae438729d7be2bcb7dc1,21,ble_packet
2025-07-21T12:00:31.614633,01320895b817000000597eae438729d7be2bcb7dc1,21,ble_packet
2025-07-21T12:00:31.620365,013208ccc817000000597eae438729d7be2bcb7dc1,21,ble_packet
2025-07-21T12:00:31.624928,01320801d9170000006880ae43b0b9d8be5ed77dc1,21,ble_packet
2025-07-21T12:00:31.631918,01320837e9170000006880ae43b0b9d8be5ed77dc1,21,ble_packet
2025-07-21T12:00:31.637955,0132086df917000000b582ae43b69ed8be9ae77dc1,21,ble_packet
2025-07-21T12:00:31.643126,013208a30918000000b582ae43b69ed8be9ae77dc1,21,ble_packet
2025-07-21T12:00:31.649471,013208d91918000000b582ae43b69ed8be9ae77dc1,21,ble_packet
2025-07-21T12:00:31.654319,0132080f2a180000001e84ae43a40ddabe6d077ec1,21,ble_packet
2025-07-21T12:00:31.660706,013208453a180000001e84ae43a40ddabe6d077ec1,21,ble_packet
2025-07-21T12:00:31.665507,0132087b4a180000008d85ae43ae12d8be8e007ec1,21,ble_packet
2025-07-21T12:00:31.670587,013208b15a180000008d85ae43ae12d8be8e007ec1,21,ble_packet
2025-07-21T12:00:31.676443,013208e76a180000000e87ae4319b6d5be8b007ec1,21,ble_packet
2025-07-21T12:00:31.681368,0132081d7b180000000e87ae4319b6d5be8b007ec1,21,ble_packet
2025-07-21T12:00:31.687282,013208538b180000000e87ae4319b6d5be8b007ec1,21,ble_packet
2025-07-21T12:00:31.691861,013208899b180000008288ae435416d4beda177ec1,21,ble_packet
2025-07-21T12:00:31.698578,013208bfab180000008288ae435416d4beda177ec1,21,ble_packet
2025-07-21T12:00:31.704187,013208f6bb180000002489ae437ae2d6be82137ec1,21,ble_packet
2025-07-21T12:00:31.709661,0132082ccc180000002489ae437ae2d6be82137ec1,21,ble_packet
2025-07-21T12:00:31.715537,01320861dc180000002489ae437ae2d6be82137ec1,21,ble_packet
2025-07-21T12:00:31.720478,01320897ec180000005c8aae430594d6bee60b7ec1,21,ble_packet
2025-07-21T12:00:31.727554,013208cdfc180000005c8aae430594d6bee60b7ec1,21,ble_packet
2025-07-21T12:00:31.733596,013208040d19000000008cae439487d5be0bfd7dc1,21,ble_packet
2025-07-21T12:00:31.742294,013208391d19000000008cae439487d5be0bfd7dc1,21,ble_packet
2025-07-21T12:00:31.749526,0132086f2d19000000928dae434effd5becef17dc1,21,ble_packet
2025-07-21T12:00:31.754191,013208a53d19000000928dae434effd5becef17dc1,21,ble_packet
2025-07-21T12:00:31.760107,013208db4d19000000928dae434effd5becef17dc1,21,ble_packet
2025-07-21T12:00:31.764878,013208115e19000000d78eae43cfaed4bea7d47dc1,21,ble_packet
2025-07-21T12:00:31.770418,013208476e19000000d78eae43cfaed4bea7d47dc1,21,ble_packet
2025-07-21T12:00:31.775054,0132087e7e190000006d8fae43c819d4be0aae7dc1,21,ble_packet
2025-07-21T12:00:31.779836,013208b38e190000006d8fae43c819d4be0aae7dc1,21,ble_packet
2025-07-21T12:00:31.786066,013208e99e190000006d8fae43c819d4be0aae7dc1,21,ble_packet
2025-07-21T12:00:31.790698,01320820af19000000da8eae43ba48d6bea7697dc1,21,ble_packet
2025-07-21T12:00:31.796996,01320855bf19000000da8eae43ba48d6bea7697dc1,21,ble_packet
2025-07-21T12:00:31.801890,0132088bcf19000000028eae43fbe6dabe91067dc1,21,ble_packet
2025-07-21T12:00:31.810019,013208c1df19000000028eae43fbe6dabe91067dc1,21,ble_packet
2025-07-21T12:00:31.818147,013208f9ef19000000858cae43535ee1beaee07cc1,21,ble_packet
2025-07-21T12:00:31.824130,0132082d001a000000858cae43535ee1beaee07cc1,21,ble_packet
2025-07-21T12:00:31.830452,01320863101a000000858cae43535ee1beaee07cc1,21,ble_packet
2025-07-21T12:00:31.836233,01320899201a000000298aae43ba32e1be3ac47cc1,21,ble_packet
2025-07-21T12:00:31.842576,013208cf301a000000298aae43ba32e1be3ac47cc1,21,ble_packet
2025-07-21T12:00:31.848097,01320805411a000000a788ae43f605dfbe92d17cc1,21,ble_packet
2025-07-21T12:00:31.855606,0132083b511a000000a788ae43f605dfbe92d17cc1,21,ble_packet
2025-07-21T12:00:31.862444,01320871611a000000a788ae43f605dfbe92d17cc1,21,ble_packet
2025-07-21T12:00:31.868031,013208a7711a0000001488ae43c5fee3be10427dc1,21,ble_packet
2025-07-21T12:00:31.874581,013208de811a0000001488ae43c5fee3be10427dc1,21,ble_packet
2025-07-21T12:00:31.879364,01320813921a000000ad88ae43eeaee3be351f7dc1,21,ble_packet
2025-07-21T12:00:31.885653,01320849a21a000000ad88ae43eeaee3be351f7dc1,21,ble_packet
2025-07-21T12:00:31.890666,01320880b21a000000ad88ae43eeaee3be351f7dc1,21,ble_packet
2025-07-21T12:00:31.896954,013208b5c21a000000bc89ae43ae7de4be09137dc1,21,ble_packet
2025-07-21T12:00:31.903249,013208ebd21a000000bc89ae43ae7de4be09137dc1,21,ble_packet
2025-07-21T12:00:31.908137,01320821e31a000000c78aae432e58e5be0dee7cc1,21,ble_packet
2025-07-21T12:00:31.914013,01320858f31a000000c78aae432e58e5be0dee7cc1,21,ble_packet
2025-07-21T12:00:31.919120,0132088d031b000000048cae43fb80e1bedad87cc1,21,ble_packet
2025-07-21T12:00:31.927450,013208c3131b000000048cae43fb80e1bedad87cc1,21,ble_packet
2025-07-21T12:00:31.934532,013208f9231b000000048cae43fb80e1bedad87cc1,21,ble_packet
2025-07-21T12:00:31.943212,0132082f341b000000d78cae431431d8bec6d37cc1,21,ble_packet
2025-07-21T12:00:31.949321,01320865441b000000d78cae431431d8bec6d37cc1,21,ble_packet
2025-07-21T12:00:31.954067,0132089c541b000000828dae439a74d0be7ed07cc1,21,ble_packet
2025-07-21T12:00:31.960044,013208d2641b000000828dae439a74d0be7ed07cc1,21,ble_packet
2025-07-21T12:00:31.965319,01320808751b000000828dae439a74d0be7ed07cc1,21,ble_packet
2025-07-21T12:00:31.971096,0132083e851b000000b88fae43244bc3be4ac07cc1,21,ble_packet
2025-07-21T12:00:31.977346,01320873951b000000b88fae43244bc3be4ac07cc1,21,ble_packet
2025-07-21T12:00:31.982395,013208a9a51b000000ee91ae43ab44b8bec9cc7cc1,21,ble_packet
2025-07-21T12:00:31.989746,013208dfb51b000000ee91ae43ab44b8bec9cc7cc1,21,ble_packet
2025-07-21T12:00:31.997651,01320815c61b000000ce93ae436596b1befdc07cc1,21,ble_packet
2025-07-21T12:00:32.008182,0132084bd61b000000ce93ae436596b1befdc07cc1,21,ble_packet
2025-07-21T12:00:32.015878,01320881e61b000000ce93ae436596b1befdc07cc1,21,ble_packet
2025-07-21T12:00:32.024378,013208b7f61b0000001795ae435fd2b0be17867cc1,21,ble_packet
2025-07-21T12:00:32.034580,013208ee061c0000001795ae435fd2b0be17867cc1,21,ble_packet
2025-07-21T12:00:32.044432,01320823171c0000009496ae43fbdab3be483b7cc1,21,ble_packet
2025-07-21T12:00:32.053584,01320859271c0000009496ae43fbdab3be483b7cc1,21,ble_packet
2025-07-21T12:00:32.060724,0132088f371c0000009496ae43fbdab3be483b7cc1,21,ble_packet
2025-07-21T12:00:32.068997,013208c5471c000000d098ae43e28eb6be83e37bc1,21,ble_packet
2025-07-21T12:00:32.074950,013208fb571c000000d098ae43e28eb6be83e37bc1,21,ble_packet
2025-07-21T12:00:32.082366,01320831681c000000a69aae430ee8b4beaca77bc1,21,ble_packet
2025-07-21T12:00:32.089430,01320867781c000000a69aae430ee8b4beaca77bc1,21,ble_packet
2025-07-21T12:00:32.095017,0132089d881c000000a79cae433a34afbe394a7bc1,21,ble_packet
2025-07-21T12:00:32.102215,013208d3981c000000a79cae433a34afbe394a7bc1,21,ble_packet
2025-07-21T12:00:32.108519,01320809a91c000000a79cae433a34afbe394a7bc1,21,ble_packet
2025-07-21T12:00:32.116764,0132083fb91c000000d79fae43d4d7abbe10d77ac1,21,ble_packet
2025-07-21T12:00:32.124607,01320875c91c000000d79fae43d4d7abbe10d77ac1,21,ble_packet
2025-07-21T12:00:32.131580,013208acd91c00000095a3ae43ae5eabbef45b7ac1,21,ble_packet
2025-07-21T12:00:32.139547,013208e1e91c00000095a3ae43ae5eabbef45b7ac1,21,ble_packet
2025-07-21T12:00:32.146111,01320817fa1c00000095a3ae43ae5eabbef45b7ac1,21,ble_packet
2025-07-21T12:00:32.154341,0132084e0a1d0000002fa7ae4364b0adbe69ef79c1,21,ble_packet
2025-07-21T12:00:32.160988,013208861a1d0000002fa7ae4364b0adbe69ef79c1,21,ble_packet
2025-07-21T12:00:32.168951,013208b92a1d00000089a9ae43285caebebf9379c1,21,ble_packet
2025-07-21T12:00:32.176839,013208f03a1d00000089a9ae43285caebebf9379c1,21,ble_packet
2025-07-21T12:00:32.195257,013208264b1d00000089a9ae43285caebebf9379c1,21,ble_packet
2025-07-21T12:00:32.203088,0132085b5b1d00000096abae433dc6b2be5b0779c1,21,ble_packet
2025-07-21T12:00:32.209686,013208916b1d00000096abae433dc6b2be5b0779c1,21,ble_packet
2025-07-21T12:00:32.216750,013208c87b1d000000faacae434fcfb6be8ca578c1,21,ble_packet
2025-07-21T12:00:32.224330,013208fd8b1d000000faacae434fcfb6be8ca578c1,21,ble_packet
2025-07-21T12:00:32.232675,013208339c1d00000067aeae4365e8b9be8d5278c1,21,ble_packet
2025-07-21T12:00:32.240299,0132086aac1d00000067aeae4365e8b9be8d5278c1,21,ble_packet
2025-07-21T12:00:32.246869,013208a0bc1d00000067aeae4365e8b9be8d5278c1,21,ble_packet
2025-07-21T12:00:32.253688,013208d5cc1d000000efaeae432521b9be784478c1,21,ble_packet
2025-07-21T12:00:32.259568,0132080cdd1d000000efaeae432521b9be784478c1,21,ble_packet
2025-07-21T12:00:32.267133,01320842ed1d000000d3aeae431ed3b6be446778c1,21,ble_packet
2025-07-21T12:00:32.273474,01320877fd1d000000d3aeae431ed3b6be446778c1,21,ble_packet
2025-07-21T12:00:32.279646,013208ad0d1e000000d3aeae431ed3b6be446778c1,21,ble_packet
2025-07-21T12:00:32.286898,013208e41d1e000000d8aeae4354cdb4be658278c1,21,ble_packet
2025-07-21T12:00:32.292725,013208192e1e000000d8aeae4354cdb4be658278c1,21,ble_packet
2025-07-21T12:00:32.299459,0132084f3e1e0000007dafae434d03b8beaa8b78c1,21,ble_packet
2025-07-21T12:00:32.305721,013208854e1e0000007dafae434d03b8beaa8b78c1,21,ble_packet
2025-07-21T12:00:32.312700,013208bb5e1e00000032b1ae43ff40bebe757478c1,21,ble_packet
2025-07-21T12:00:32.320530,013208f16e1e00000032b1ae43ff40bebe757478c1,21,ble_packet
2025-07-21T12:00:32.327403,013208277f1e00000032b1ae43ff40bebe757478c1,21,ble_packet
2025-07-21T12:00:32.335743,0132085d8f1e00000021b2ae433ed2bbbee35678c1,21,ble_packet
2025-07-21T12:00:32.341453,013208949f1e00000021b2ae433ed2bbbee35678c1,21,ble_packet
2025-07-21T12:00:32.348698,013208c9af1e000000fbb1ae4320d0b7be9e3978c1,21,ble_packet
2025-07-21T12:00:32.355630,013208ffbf1e000000fbb1ae4320d0b7be9e3978c1,21,ble_packet
2025-07-21T12:00:32.363626,01320836d01e000000fbb1ae4320d0b7be9e3978c1,21,ble_packet
2025-07-21T12:00:32.371905,0132086be01e000000c2b2ae43ab9cb7be71e077c1,21,ble_packet
2025-07-21T12:00:32.377830,013208a1f01e000000c2b2ae43ab9cb7be71e077c1,21,ble_packet
2025-07-21T12:00:32.384800,013208d8001f000000cfb3ae43d06bb3bec08d77c1,21,ble_packet
2025-07-21T12:00:32.390870,0132080d111f000000cfb3ae43d06bb3bec08d77c1,21,ble_packet
2025-07-21T12:00:32.397987,01320843211f00000097b4ae43a680afbef05677c1,21,ble_packet
2025-07-21T12:00:32.404096,0132087a311f00000097b4ae43a680afbef05677c1,21,ble_packet
2025-07-21T12:00:32.409990,013208af411f00000097b4ae43a680afbef05677c1,21,ble_packet
2025-07-21T12:00:32.416906,013208e5511f000000e2b3ae43ebdbabbeb24477c1,21,ble_packet
2025-07-21T12:00:32.422700,0132081b621f000000e2b3ae43ebdbabbeb24477c1,21,ble_packet
2025-07-21T12:00:32.429321,01320851721f000000dfb2ae432d69a6beff4777c1,21,ble_packet
2025-07-21T12:00:32.436593,01320887821f000000dfb2ae432d69a6beff4777c1,21,ble_packet
2025-07-21T12:00:32.445446,013208bd921f000000dfb2ae432d69a6beff4777c1,21,ble_packet
2025-07-21T12:00:32.453620,013208f4a21f000000dbb3ae432232a5be9a6977c1,21,ble_packet
2025-07-21T12:00:32.459361,0132082ab31f000000dbb3ae432232a5be9a6977c1,21,ble_packet
2025-07-21T12:00:32.465922,0132085fc31f00000023b5ae43f54ba6be929877c1,21,ble_packet
2025-07-21T12:00:32.471942,01320895d31f00000023b5ae43f54ba6be929877c1,21,ble_packet
2025-07-21T12:00:32.478961,013208cbe31f00000064b6ae43e600aabec7b177c1,21,ble_packet
2025-07-21T12:00:32.485006,01320801f41f00000064b6ae43e600aabec7b177c1,21,ble_packet
2025-07-21T12:00:32.492811,01320838042000000064b6ae43e600aabec7b177c1,21,ble_packet
2025-07-21T12:00:32.499760,0132086e1420000000e3b6ae435d88abbe2bad77c1,21,ble_packet
2025-07-21T12:00:32.505686,013208a32420000000e3b6ae435d88abbe2bad77c1,21,ble_packet
2025-07-21T12:00:32.512670,013208d93420000000feb6ae4349d1acbe859877c1,21,ble_packet
2025-07-21T12:00:32.519529,013208114520000000feb6ae4349d1acbe859877c1,21,ble_packet
2025-07-21T12:00:32.527655,013208455520000000feb6ae4349d1acbe859877c1,21,ble_packet
2025-07-21T12:00:32.535076,0132087b6520000000c6b6ae437080adbea36777c1,21,ble_packet
2025-07-21T12:00:32.540946,013208b17520000000c6b6ae437080adbea36777c1,21,ble_packet
2025-07-21T12:00:32.547556,013208e7852000000038b7ae43e20eadbe702077c1,21,ble_packet
2025-07-21T12:00:32.553535,0132081d962000000038b7ae43e20eadbe702077c1,21,ble_packet
2025-07-21T12:00:32.560456,01320853a62000000038b7ae43e20eadbe702077c1,21,ble_packet
2025-07-21T12:00:32.566333,01320889b62000000026b8ae4343d6abbe8c0677c1,21,ble_packet
2025-07-21T12:00:32.573377,013208bfc62000000026b8ae4343d6abbe8c0677c1,21,ble_packet
2025-07-21T12:00:32.580297,013208f5d620000000adb8ae43f66aa9be20fa76c1,21,ble_packet
2025-07-21T12:00:32.586379,0132082be720000000adb8ae43f66aa9be20fa76c1,21,ble_packet
2025-07-21T12:00:32.593377,01320861f720000000bbb8ae4362d7abbe87c076c1,21,ble_packet
2025-07-21T12:00:32.599026,013208970721000000bbb8ae4362d7abbe87c076c1,21,ble_packet
2025-07-21T12:00:32.606270,013208cd1721000000bbb8ae4362d7abbe87c076c1,21,ble_packet
2025-07-21T12:00:32.612196,0132080428210000008fb8ae43a063afbea66c76c1,21,ble_packet
2025-07-21T12:00:32.619962,0132083938210000008fb8ae43a063afbea66c76c1,21,ble_packet
2025-07-21T12:00:32.626869,0132086f4821000000c7b8ae43de99aebef51f76c1,21,ble_packet
2025-07-21T12:00:32.632710,013208a55821000000c7b8ae43de99aebef51f76c1,21,ble_packet
2025-07-21T12:00:32.640757,013208db6821000000c7b8ae43de99aebef51f76c1,21,ble_packet
2025-07-21T12:00:32.646349,01320811792100000005baae43a66daabee9f875c1,21,ble_packet
2025-07-21T12:00:32.654690,01320847892100000005baae43a66daabee9f875c1,21,ble_packet
2025-07-21T12:00:32.661805,0132087e992100000080bbae43360ca5be49e975c1,21,ble_packet
2025-07-21T12:00:32.667702,013208b3a92100000080bbae43360ca5be49e975c1,21,ble_packet
2025-07-21T12:00:32.674476,013208eab9210000002cbdae43927aa1bea6c475c1,21,ble_packet
2025-07-21T12:00:32.680320,0132081fca210000002cbdae43927aa1bea6c475c1,21,ble_packet
2025-07-21T12:00:32.687221,01320855da210000002cbdae43927aa1bea6c475c1,21,ble_packet
2025-07-21T12:00:32.694004,0132088bea2100000061bdae43fbd69cbe27a475c1,21,ble_packet
2025-07-21T12:00:32.702135,013208c1fa2100000061bdae43fbd69cbe27a475c1,21,ble_packet
2025-07-21T12:00:32.710180,013208f70a220000005bbdae43f30299be706875c1,21,ble_packet
2025-07-21T12:00:32.715953,0132082d1b220000005bbdae43f30299be706875c1,21,ble_packet
2025-07-21T12:00:32.722868,013208632b220000005bbdae43f30299be706875c1,21,ble_packet
2025-07-21T12:00:32.728606,0132089a3b22000000bfbcae43799c95bea55275c1,21,ble_packet
2025-07-21T12:00:32.735551,013208cf4b22000000bfbcae43799c95bea55275c1,21,ble_packet
2025-07-21T12:00:32.742034,013208055c2200000097bcae432e0d96be3a5975c1,21,ble_packet
2025-07-21T12:00:32.749544,0132083b6c2200000097bcae432e0d96be3a5975c1,21,ble_packet
2025-07-21T12:00:32.756522,013208717c220000007abdae4398e096be996375c1,21,ble_packet
2025-07-21T12:00:32.762440,013208a78c220000007abdae4398e096be996375c1,21,ble_packet
2025-07-21T12:00:32.769525,013208dd9c220000007abdae4398e096be996375c1,21,ble_packet
2025-07-21T12:00:32.775332,01320813ad2200000039bdae438ce791be3ab975c1,21,ble_packet
2025-07-21T12:00:32.782385,01320849bd2200000039bdae438ce791be3ab975c1,21,ble_packet
2025-07-21T12:00:32.788201,01320880cd2200000026bdae4376258ebe6bca75c1,21,ble_packet
2025-07-21T12:00:32.795137,013208b6dd2200000026bdae4376258ebe6bca75c1,21,ble_packet
2025-07-21T12:00:32.802335,013208eced2200000026bdae4376258ebe6bca75c1,21,ble_packet
2025-07-21T12:00:32.808624,01320821fe2200000017beae43aeec8abe12ad75c1,21,ble_packet
2025-07-21T12:00:32.815516,013208570e2300000017beae43aeec8abe12ad75c1,21,ble_packet
2025-07-21T12:00:32.821363,0132088d1e23000000a9bfae43f87e89be306f75c1,21,ble_packet
2025-07-21T12:00:32.829205,013208c32e23000000a9bfae43f87e89be306f75c1,21,ble_packet
2025-07-21T12:00:32.836105,013208f93e2300000028c2ae43a46088be25ef74c1,21,ble_packet
2025-07-21T12:00:32.842775,0132082f4f2300000028c2ae43a46088be25ef74c1,21,ble_packet
2025-07-21T12:00:32.849601,013208655f2300000028c2ae43a46088be25ef74c1,21,ble_packet
2025-07-21T12:00:32.855659,0132089d6f23000000f6c2ae43fb1e90be1f2775c1,21,ble_packet
2025-07-21T12:00:32.863830,013208d17f23000000f6c2ae43fb1e90be1f2775c1,21,ble_packet
2025-07-21T12:00:32.870728,01320807902300000002c4ae436be990be42e374c1,21,ble_packet
2025-07-21T12:00:32.880167,0132083da02300000002c4ae436be990be42e374c1,21,ble_packet
2025-07-21T12:00:32.888059,01320873b02300000002c4ae436be990be42e374c1,21,ble_packet
2025-07-21T12:00:32.895492,013208a9c023000000d9c5ae437f4795bee2c874c1,21,ble_packet
2025-07-21T12:00:32.902518,013208e0d023000000d9c5ae437f4795bee2c874c1,21,ble_packet
2025-07-21T12:00:32.908747,01320816e123000000c9c7ae43264696be928874c1,21,ble_packet
2025-07-21T12:00:32.915904,0132084bf123000000c9c7ae43264696be928874c1,21,ble_packet
2025-07-21T12:00:32.922218,013208810124000000c9c7ae43264696be928874c1,21,ble_packet
2025-07-21T12:00:32.929711,013208b7112400000070c8ae4372ef93be595f74c1,21,ble_packet
2025-07-21T12:00:32.937467,013208ed212400000070c8ae4372ef93be595f74c1,21,ble_packet
2025-07-21T12:00:32.943827,01320823322400000044c9ae4350c393be0c2e74c1,21,ble_packet
2025-07-21T12:00:32.951215,0132085a422400000044c9ae4350c393be0c2e74c1,21,ble_packet
2025-07-21T12:00:32.956884,0132088f522400000027caae435bbb8dbe551f74c1,21,ble_packet
2025-07-21T12:00:32.964110,013208c5622400000027caae435bbb8dbe551f74c1,21,ble_packet
2025-07-21T12:00:32.970019,013208fb722400000027caae435bbb8dbe551f74c1,21,ble_packet
2025-07-21T12:00:32.977182,013208328324000000b2cbae430f9386be332674c1,21,ble_packet
2025-07-21T12:00:32.984053,013208679324000000b2cbae430f9386be332674c1,21,ble_packet
2025-07-21T12:00:32.990014,0132089da3240000001fcdae4318b07fbe5d3f74c1,21,ble_packet
2025-07-21T12:00:32.996434,013208d3b3240000001fcdae4318b07fbe5d3f74c1,21,ble_packet
2025-07-21T12:00:33.001435,01320809c4240000001fcdae4318b07fbe5d3f74c1,21,ble_packet
2025-07-21T12:00:33.007758,01320840d424000000e2ceae43f27b76be784374c1,21,ble_packet
2025-07-21T12:00:33.013978,01320875e424000000e2ceae43f27b76be784374c1,21,ble_packet
2025-07-21T12:00:33.019199,013208abf424000000f5d0ae434abf6ebe644774c1,21,ble_packet
2025-07-21T12:00:33.024958,013208e20425000000f5d0ae434abf6ebe644774c1,21,ble_packet
2025-07-21T12:00:33.029986,01320817152500000068d3ae433e8465bef94c74c1,21,ble_packet
2025-07-21T12:00:33.037231,0132084d252500000068d3ae433e8465bef94c74c1,21,ble_packet
2025-07-21T12:00:33.043693,01320883352500000068d3ae433e8465bef94c74c1,21,ble_packet
2025-07-21T12:00:33.050588,013208b94525000000bfd3ae4377a65bbed47574c1,21,ble_packet
2025-07-21T12:00:33.056493,013208ef5525000000bfd3ae4377a65bbed47574c1,21,ble_packet
2025-07-21T12:00:33.061518,0132082566250000001fd3ae43d59a56bef48174c1,21,ble_packet
2025-07-21T12:00:33.067284,0132085c76250000001fd3ae43d59a56bef48174c1,21,ble_packet
2025-07-21T12:00:33.072014,0132089186250000001fd3ae43d59a56bef48174c1,21,ble_packet
2025-07-21T12:00:33.078300,013208c7962500000069d3ae43198752be664374c1,21,ble_packet
2025-07-21T12:00:33.083159,013208fda62500000069d3ae43198752be664374c1,21,ble_packet
2025-07-21T12:00:33.089255,01320833b72500000024d4ae43ec494dbe1b1574c1,21,ble_packet
2025-07-21T12:00:33.095444,01320869c72500000024d4ae43ec494dbe1b1574c1,21,ble_packet
2025-07-21T12:00:33.100257,0132089fd7250000005fd5ae43fd8b4abe8ef273c1,21,ble_packet
2025-07-21T12:00:33.107303,013208d6e7250000005fd5ae43fd8b4abe8ef273c1,21,ble_packet
2025-07-21T12:00:33.113641,0132080cf8250000005fd5ae43fd8b4abe8ef273c1,21,ble_packet
2025-07-21T12:00:33.120525,01320841082600000020d7ae4327cf45be12f273c1,21,ble_packet
2025-07-21T12:00:33.126498,01320877182600000020d7ae4327cf45be12f273c1,21,ble_packet
2025-07-21T12:00:33.131541,013208ad2826000000f0d8ae43845246be51cd73c1,21,ble_packet
2025-07-21T12:00:33.137428,013208e33826000000f0d8ae43845246be51cd73c1,21,ble_packet
2025-07-21T12:00:33.141944,013208194926000000f0d8ae43845246be51cd73c1,21,ble_packet
2025-07-21T12:00:33.147861,0132084f59260000009cd9ae4328cf4fbebe9673c1,21,ble_packet
2025-07-21T12:00:33.152822,0132088569260000009cd9ae4328cf4fbebe9673c1,21,ble_packet
2025-07-21T12:00:33.158968,013208bb792600000016dbae43ab0a59be503073c1,21,ble_packet
2025-07-21T12:00:33.165059,013208f1892600000016dbae43ab0a59be503073c1,21,ble_packet
2025-07-21T12:00:33.169902,013208299a26000000dbdcae435c935dbe8bf872c1,21,ble_packet
2025-07-21T12:00:33.176531,0132085daa26000000dbdcae435c935dbe8bf872c1,21,ble_packet
2025-07-21T12:00:33.182348,01320893ba26000000dbdcae435c935dbe8bf872c1,21,ble_packet
2025-07-21T12:00:33.190438,013208caca2600000039deae43fb1259beaec172c1,21,ble_packet
2025-07-21T12:00:33.198452,01320800db2600000039deae43fb1259beaec172c1,21,ble_packet
2025-07-21T12:00:33.211802,01320835eb2600000067dfae43899047be1aa372c1,21,ble_packet
2025-07-21T12:00:33.220403,0132086cfb2600000067dfae43899047be1aa372c1,21,ble_packet
2025-07-21T12:00:33.227005,013208a20b2700000067dfae43899047be1aa372c1,21,ble_packet
2025-07-21T12:00:33.233865,013208d71b2700000062e0ae430b3546be047272c1,21,ble_packet
2025-07-21T12:00:33.240504,0132080e2c2700000062e0ae430b3546be047272c1,21,ble_packet
2025-07-21T12:00:33.247897,013208433c27000000dee0ae43a3c240befd7072c1,21,ble_packet
2025-07-21T12:00:33.255022,0132087a4c27000000dee0ae43a3c240befd7072c1,21,ble_packet
2025-07-21T12:00:33.262922,013208af5c27000000dee0ae43a3c240befd7072c1,21,ble_packet
2025-07-21T12:00:33.271605,013208e66c270000001be1ae43cd0e38be607c72c1,21,ble_packet
2025-07-21T12:00:33.277749,0132081b7d270000001be1ae43cd0e38be607c72c1,21,ble_packet
2025-07-21T12:00:33.285054,013208518d270000009fe0ae434ce924bebfa972c1,21,ble_packet
2025-07-21T12:00:33.291031,013208879d270000009fe0ae434ce924bebfa972c1,21,ble_packet
2025-07-21T12:00:33.299016,013208bdad2700000076e0ae43e68a13be4ec372c1,21,ble_packet
2025-07-21T12:00:33.306774,013208f3bd2700000076e0ae43e68a13be4ec372c1,21,ble_packet
2025-07-21T12:00:33.313191,01320829ce2700000076e0ae43e68a13be4ec372c1,21,ble_packet
2025-07-21T12:00:33.321000,01320860de2700000027e1ae43bd120abed99c72c1,21,ble_packet
2025-07-21T12:00:33.327088,01320895ee2700000027e1ae43bd120abed99c72c1,21,ble_packet
2025-07-21T12:00:33.334231,013208cbfe27000000cae0ae43e60f25bee28e72c1,21,ble_packet
2025-07-21T12:00:33.340991,013208010f28000000cae0ae43e60f25bee28e72c1,21,ble_packet
2025-07-21T12:00:33.350426,013208371f28000000cae0ae43e60f25bee28e72c1,21,ble_packet
2025-07-21T12:00:33.357325,0132086d2f28000000cfe0ae4381c62fbe1d6872c1,21,ble_packet
2025-07-21T12:00:33.363476,013208a33f28000000cfe0ae4381c62fbe1d6872c1,21,ble_packet
2025-07-21T12:00:33.370959,013208d94f2800000082e2ae43c89040bee9d571c1,21,ble_packet
2025-07-21T12:00:33.377221,01320810602800000082e2ae43c89040bee9d571c1,21,ble_packet
2025-07-21T12:00:33.384285,013208457028000000c9e2ae43804b4abec37971c1,21,ble_packet
2025-07-21T12:00:33.389135,0132087b8028000000c9e2ae43804b4abec37971c1,21,ble_packet
2025-07-21T12:00:33.394329,013208b19028000000c9e2ae43804b4abec37971c1,21,ble_packet
2025-07-21T12:00:33.400430,013208e7a02800000005e3ae43c8f530be1a6671c1,21,ble_packet
2025-07-21T12:00:33.407568,0132081db12800000005e3ae43c8f530be1a6671c1,21,ble_packet
2025-07-21T12:00:33.416322,01320854c12800000045e2ae43896724be597471c1,21,ble_packet
2025-07-21T12:00:33.422271,01320889d12800000045e2ae43896724be597471c1,21,ble_packet
2025-07-21T12:00:33.429250,013208bfe12800000045e2ae43896724be597471c1,21,ble_packet
2025-07-21T12:00:33.436655,013208f5f1280000002ee1ae437fe71fbecc2b71c1,21,ble_packet
2025-07-21T12:00:33.442746,0132082b02290000002ee1ae437fe71fbecc2b71c1,21,ble_packet
2025-07-21T12:00:33.449842,01320861122900000047e2ae43ed231cbed6af70c1,21,ble_packet
2025-07-21T12:00:33.455991,01320898222900000047e2ae43ed231cbed6af70c1,21,ble_packet
2025-07-21T12:00:33.462790,013208ce3229000000aae5ae43fa7721be024c70c1,21,ble_packet
2025-07-21T12:00:33.471294,013208034329000000aae5ae43fa7721be024c70c1,21,ble_packet
2025-07-21T12:00:33.481565,013208395329000000aae5ae43fa7721be024c70c1,21,ble_packet
2025-07-21T12:00:33.490780,0132087063290000006ce8ae43461b2fbece4170c1,21,ble_packet
2025-07-21T12:00:33.497036,013208a673290000006ce8ae43461b2fbece4170c1,21,ble_packet
2025-07-21T12:00:33.504311,013208db8329000000bfe9ae4307f646be764270c1,21,ble_packet
2025-07-21T12:00:33.510575,013208119429000000bfe9ae4307f646be764270c1,21,ble_packet
2025-07-21T12:00:33.517683,01320848a429000000bfe9ae4307f646be764270c1,21,ble_packet
2025-07-21T12:00:33.523288,0132087eb429000000d0e6ae436a965ebe009e6fc1,21,ble_packet
2025-07-21T12:00:33.529531,013208b5c429000000d0e6ae436a965ebe009e6fc1,21,ble_packet
2025-07-21T12:00:33.536984,013208ead429000000b3e1ae432bf64abe6bdc6ec1,21,ble_packet
2025-07-21T12:00:33.542301,01320820e529000000b3e1ae432bf64abe6bdc6ec1,21,ble_packet
2025-07-21T12:00:33.560025,01320855f529000000b3e1ae432bf64abe6bdc6ec1,21,ble_packet
2025-07-21T12:00:33.564802,0132088b052a000000f9dcae43fd3d34be90966ec1,21,ble_packet
2025-07-21T12:00:33.574439,013208c1152a000000f9dcae43fd3d34be90966ec1,21,ble_packet
2025-07-21T12:00:33.583774,013208f7252a0000008adaae432a3c19be0f3d6ec1,21,ble_packet
2025-07-21T12:00:33.589529,0132082d362a0000008adaae432a3c19be0f3d6ec1,21,ble_packet
2025-07-21T12:00:33.597084,01320864462a00000059dbae43e5dc02bef9d96dc1,21,ble_packet
2025-07-21T12:00:33.605755,01320899562a00000059dbae43e5dc02bef9d96dc1,21,ble_packet
2025-07-21T12:00:33.615246,013208cf662a00000059dbae43e5dc02bef9d96dc1,21,ble_packet
2025-07-21T12:00:33.623666,01320805772a0000009edcae430923edbd87106ec1,21,ble_packet
2025-07-21T12:00:33.630525,0132083c872a0000009edcae430923edbd87106ec1,21,ble_packet
2025-07-21T12:00:33.636555,01320871972a00000001dbae431bd501bee52f6ec1,21,ble_packet
2025-07-21T12:00:33.644854,013208a7a72a00000001dbae431bd501bee52f6ec1,21,ble_packet
2025-07-21T12:00:33.654231,013208ddb72a00000001dbae431bd501bee52f6ec1,21,ble_packet
2025-07-21T12:00:33.662639,01320814c82a00000049dcae43ebb196bdbe5e6dc1,21,ble_packet
2025-07-21T12:00:33.669284,01320849d82a00000049dcae43ebb196bdbe5e6dc1,21,ble_packet
2025-07-21T12:00:33.675700,01320880e82a0000008fe1ae435eb02ebb6ba66dc1,21,ble_packet
2025-07-21T12:00:33.682990,013208b5f82a0000008fe1ae435eb02ebb6ba66dc1,21,ble_packet
2025-07-21T12:00:33.690241,013208eb082b000000bfecae43e15db73df25f6ec1,21,ble_packet
2025-07-21T12:00:33.696472,01320822192b000000bfecae43e15db73df25f6ec1,21,ble_packet
2025-07-21T12:00:33.704596,01320858292b000000bfecae43e15db73df25f6ec1,21,ble_packet
2025-07-21T12:00:33.710740,0132088d392b00000035fdae43b8872b3eb6886fc1,21,ble_packet
2025-07-21T12:00:33.718065,013208c3492b00000035fdae43b8872b3eb6886fc1,21,ble_packet
2025-07-21T12:00:33.723974,013208fa592b0000009708af4304e1713e3e6371c1,21,ble_packet
2025-07-21T12:00:33.730968,013208306a2b0000009708af4304e1713e3e6371c1,21,ble_packet
2025-07-21T12:00:33.738060,013208667a2b0000009708af4304e1713e3e6371c1,21,ble_packet
2025-07-21T12:00:33.744279,0132089b8a2b000000c90daf43e1e7923e897173c1,21,ble_packet
2025-07-21T12:00:33.751357,013208d19a2b000000c90daf43e1e7923e897173c1,21,ble_packet
2025-07-21T12:00:33.757366,01320808ab2b000000f80faf439543a93e59f175c1,21,ble_packet
2025-07-21T12:00:33.764207,0132083ebb2b000000f80faf439543a93e59f175c1,21,ble_packet
2025-07-21T12:00:33.771379,01320874cb2b000000bb12af436186c43ef9be78c1,21,ble_packet
2025-07-21T12:00:33.777164,013208a9db2b000000bb12af436186c43ef9be78c1,21,ble_packet
2025-07-21T12:00:33.784241,013208dfeb2b000000bb12af436186c43ef9be78c1,21,ble_packet
2025-07-21T12:00:33.790284,01320815fc2b000000e306af43c808df3ec32b7cc1,21,ble_packet
2025-07-21T12:00:33.796161,0132084c0c2c000000e306af43c808df3ec32b7cc1,21,ble_packet
2025-07-21T12:00:33.801388,013208811c2c0000000801af43cafa033fc4097fc1,21,ble_packet
2025-07-21T12:00:33.809381,013208b82c2c0000000801af43cafa033fc4097fc1,21,ble_packet
2025-07-21T12:00:33.817401,013208ee3c2c0000000801af43cafa033fc4097fc1,21,ble_packet
2025-07-21T12:00:33.825005,013208244d2c0000009601af4377a21e3f886980c1,21,ble_packet
2025-07-21T12:00:33.833140,013208595d2c0000009601af4377a21e3f886980c1,21,ble_packet
2025-07-21T12:00:33.840536,0132088f6d2c0000003d08af436c913b3fb5d180c1,21,ble_packet
2025-07-21T12:00:33.849113,013208c57d2c0000003d08af436c913b3fb5d180c1,21,ble_packet
2025-07-21T12:00:33.856409,013208fb8d2c0000000e0faf433c21523f50bc80c1,21,ble_packet
2025-07-21T12:00:33.863838,013208329e2c0000000e0faf433c21523f50bc80c1,21,ble_packet
2025-07-21T12:00:33.871552,01320868ae2c0000000e0faf433c21523f50bc80c1,21,ble_packet
2025-07-21T12:00:33.877120,0132089dbe2c0000009a0faf43c793503f416f80c1,21,ble_packet
2025-07-21T12:00:33.884019,013208d4ce2c0000009a0faf43c793503f416f80c1,21,ble_packet
2025-07-21T12:00:33.889992,01320809df2c000000e203af43847e433fdc7480c1,21,ble_packet
2025-07-21T12:00:33.897108,01320842ef2c000000e203af43847e433fdc7480c1,21,ble_packet
2025-07-21T12:00:33.903217,01320875ff2c000000e203af43847e433fdc7480c1,21,ble_packet
2025-07-21T12:00:33.909304,013208ab0f2d000000f1edae439c3f363fd2a680c1,21,ble_packet
2025-07-21T12:00:33.917359,013208e21f2d000000f1edae439c3f363fd2a680c1,21,ble_packet
2025-07-21T12:00:33.924552,01320817302d000000a0dfae432cdd2a3f6f5480c1,21,ble_packet
2025-07-21T12:00:33.932785,0132084d402d000000a0dfae432cdd2a3f6f5480c1,21,ble_packet
2025-07-21T12:00:33.940459,01320883502d000000a0dfae432cdd2a3f6f5480c1,21,ble_packet
2025-07-21T12:00:33.948933,013208b9602d00000071fbae43de1d4b3fe8957ac1,21,ble_packet
2025-07-21T12:00:33.955169,013208ef702d00000071fbae43de1d4b3fe8957ac1,21,ble_packet
2025-07-21T12:00:33.959910,01320825812d000000f1f1ae437756843f745677c1,21,ble_packet
2025-07-21T12:00:33.967359,0132085b912d000000f1f1ae437756843f745677c1,21,ble_packet
2025-07-21T12:00:33.973166,01320892a12d0000003fe3ae438b9ba03f1bfc75c1,21,ble_packet
2025-07-21T12:00:33.980459,013208c7b12d0000003fe3ae438b9ba03f1bfc75c1,21,ble_packet
2025-07-21T12:00:33.986241,013208fdc12d0000003fe3ae438b9ba03f1bfc75c1,21,ble_packet
2025-07-21T12:00:33.993876,01320834d22d0000007de8ae43d7f9b23f0d7e75c1,21,ble_packet
2025-07-21T12:00:34.001136,0132086ae22d0000007de8ae43d7f9b23f0d7e75c1,21,ble_packet
2025-07-21T12:00:34.007507,013208a0f22d0000003feeae43f76ebd3f6d3c75c1,21,ble_packet
2025-07-21T12:00:34.015722,013208d5022e0000003feeae43f76ebd3f6d3c75c1,21,ble_packet
2025-07-21T12:00:34.022498,0132080b132e0000003feeae43f76ebd3f6d3c75c1,21,ble_packet
2025-07-21T12:00:34.029979,01320841232e0000002d10af434daac03f21c573c1,21,ble_packet
2025-07-21T12:00:34.037811,01320877332e0000002d10af434daac03f21c573c1,21,ble_packet
2025-07-21T12:00:34.044660,013208ad432e000000b63caf43a806bd3f8dca71c1,21,ble_packet
2025-07-21T12:00:34.051976,013208e3532e000000b63caf43a806bd3f8dca71c1,21,ble_packet
2025-07-21T12:00:34.058061,0132081a642e0000002b5baf43c547b93f873670c1,21,ble_packet
2025-07-21T12:00:34.065639,01320850742e0000002b5baf43c547b93f873670c1,21,ble_packet
2025-07-21T12:00:34.072118,01320885842e0000002b5baf43c547b93f873670c1,21,ble_packet
2025-07-21T12:00:34.078940,013208bb942e0000008e6caf4337c8b93fae956fc1,21,ble_packet
2025-07-21T12:00:34.086178,013208f2a42e0000008e6caf4337c8b93fae956fc1,21,ble_packet
2025-07-21T12:00:34.092387,01320827b52e0000000987af439fe5b93f97456fc1,21,ble_packet
2025-07-21T12:00:34.099685,0132085dc52e0000000987af439fe5b93f97456fc1,21,ble_packet
2025-07-21T12:00:34.105647,01320894d52e0000000987af439fe5b93f97456fc1,21,ble_packet
2025-07-21T12:00:34.112842,013208c9e52e00000033a3af435621b53f93896ec1,21,ble_packet
2025-07-21T12:00:34.119045,013208fff52e00000033a3af435621b53f93896ec1,21,ble_packet
2025-07-21T12:00:34.126619,01320835062f00000042caaf43bcf8b33f7f796dc1,21,ble_packet
2025-07-21T12:00:34.133826,0132086b162f00000042caaf43bcf8b33f7f796dc1,21,ble_packet
2025-07-21T12:00:34.140091,013208a1262f00000038f8af431a3ab33fd97e6cc1,21,ble_packet
2025-07-21T12:00:34.147721,013208d8362f00000038f8af431a3ab33fd97e6cc1,21,ble_packet
2025-07-21T12:00:34.153775,0132080d472f00000038f8af431a3ab33fd97e6cc1,21,ble_packet
2025-07-21T12:00:34.161442,01320844572f0000001921b043984db43ff2fc6bc1,21,ble_packet
2025-07-21T12:00:34.167422,0132087a672f0000001921b043984db43ff2fc6bc1,21,ble_packet
2025-07-21T12:00:34.173268,013208af772f0000005356b0434b7db63fa0256bc1,21,ble_packet
2025-07-21T12:00:34.180215,013208e5872f0000005356b0434b7db63fa0256bc1,21,ble_packet
2025-07-21T12:00:34.186752,0132081c982f0000005356b0434b7db63fa0256bc1,21,ble_packet
2025-07-21T12:00:34.194365,01320851a82f0000004c69b043f1cbaa3f08ff6ec1,21,ble_packet
2025-07-21T12:00:34.200709,01320888b82f0000004c69b043f1cbaa3f08ff6ec1,21,ble_packet
2025-07-21T12:00:34.207889,013208bdc82f0000009c82b043663e8d3f598474c1,21,ble_packet
2025-07-21T12:00:34.215063,013208f4d82f0000009c82b043663e8d3f598474c1,21,ble_packet
2025-07-21T12:00:34.221595,0132082ae92f000000ba98b043b1c2813f77b67bc1,21,ble_packet
2025-07-21T12:00:34.228759,01320860f92f000000ba98b043b1c2813f77b67bc1,21,ble_packet
2025-07-21T12:00:34.234942,013208950930000000ba98b043b1c2813f77b67bc1,21,ble_packet
2025-07-21T12:00:34.241894,013208ce193000000039dbb043e71f913f3b977ec1,21,ble_packet
2025-07-21T12:00:34.248237,013208012a3000000039dbb043e71f913f3b977ec1,21,ble_packet
2025-07-21T12:00:34.256875,013208383a300000000d2bb143f34ea33f98547fc1,21,ble_packet
2025-07-21T12:00:34.264537,0132086d4a300000000d2bb143f34ea33f98547fc1,21,ble_packet
2025-07-21T12:00:34.270599,013208a35a300000000d2bb143f34ea33f98547fc1,21,ble_packet
2025-07-21T12:00:34.277653,013208da6a300000007988b143d668c03f561f80c1,21,ble_packet
2025-07-21T12:00:34.285163,0132080f7b300000007988b143d668c03f561f80c1,21,ble_packet
2025-07-21T12:00:34.294844,013208458b3000000068e6b143f738dc3f69d780c1,21,ble_packet
2025-07-21T12:00:34.302352,0132087b9b3000000068e6b143f738dc3f69d780c1,21,ble_packet
2025-07-21T12:00:34.309461,013208b1ab3000000068e6b143f738dc3f69d780c1,21,ble_packet
2025-07-21T12:00:34.318026,013208e7bb300000003d5fb243a58afc3fd92b81c1,21,ble_packet
2025-07-21T12:00:34.326895,0132081dcc300000003d5fb243a58afc3fd92b81c1,21,ble_packet
2025-07-21T12:00:34.336202,01320854dc30000000f8f2b243c091114079d480c1,21,ble_packet
2025-07-21T12:00:34.344190,01320889ec30000000f8f2b243c091114079d480c1,21,ble_packet
2025-07-21T12:00:34.353894,013208bffc300000001467b343b4962040302d80c1,21,ble_packet
2025-07-21T12:00:34.363025,013208f60c310000001467b343b4962040302d80c1,21,ble_packet
2025-07-21T12:00:34.375370,0132082b1d310000001467b343b4962040302d80c1,21,ble_packet
2025-07-21T12:00:34.387708,013208612d3100000073d0b343c66b2e4002b47fc1,21,ble_packet
2025-07-21T12:00:34.395292,013208973d3100000073d0b343c66b2e4002b47fc1,21,ble_packet
2025-07-21T12:00:34.404803,013208cd4d310000005831dd3e67e03b4012017fc1,21,ble_packet
2025-07-21T12:00:34.410529,013208045e310000005831dd3e67e03b4012017fc1,21,ble_packet
2025-07-21T12:00:34.417872,013208396e310000005831dd3e67e03b4012017fc1,21,ble_packet
2025-07-21T12:00:34.424143,0132086f7e3100000073a89c3fd7f744407f397cc1,21,ble_packet
2025-07-21T12:00:34.429567,013208a68e3100000073a89c3fd7f744407f397cc1,21,ble_packet
2025-07-21T12:00:34.435905,013208db9e31000000828a054099ac4c40fb6778c1,21,ble_packet
2025-07-21T12:00:34.443627,01320811af31000000828a054099ac4c40fb6778c1,21,ble_packet
2025-07-21T12:00:34.452067,01320847bf3100000089313940d41852408c7174c1,21,ble_packet
2025-07-21T12:00:34.456897,0132087dcf3100000089313940d41852408c7174c1,21,ble_packet
2025-07-21T12:00:34.461996,013208b3df3100000089313940d41852408c7174c1,21,ble_packet
2025-07-21T12:00:34.468006,013208e9ef31000000c6cc69406d0f51409b0270c1,21,ble_packet
2025-07-21T12:00:34.472201,0132081f0032000000c6cc69406d0f51409b0270c1,21,ble_packet
2025-07-21T12:00:34.476858,01320855103200000062278e40bed24e407e106cc1,21,ble_packet
2025-07-21T12:00:34.481881,0132088b203200000062278e40bed24e407e106cc1,21,ble_packet
2025-07-21T12:00:34.487892,013208c1303200000062278e40bed24e407e106cc1,21,ble_packet
2025-07-21T12:00:34.494093,013208f74032000000f871a44006de4d40445969c1,21,ble_packet
2025-07-21T12:00:34.500311,0132082d5132000000f871a44006de4d40445969c1,21,ble_packet
2025-07-21T12:00:34.507450,013208636132000000c923b94013df4f40c7d466c1,21,ble_packet
2025-07-21T12:00:34.512336,0132089a7132000000c923b94013df4f40c7d466c1,21,ble_packet
2025-07-21T12:00:34.518891,013208d0813200000051b5cd40e64e5940ebbc64c1,21,ble_packet
2025-07-21T12:00:34.522816,01320805923200000051b5cd40e64e5940ebbc64c1,21,ble_packet
2025-07-21T12:00:34.528743,0132083ba23200000051b5cd40e64e5940ebbc64c1,21,ble_packet
2025-07-21T12:00:34.533881,01320871b23200000089f6dd4025816340c99865c1,21,ble_packet
2025-07-21T12:00:34.537911,013208a7c23200000089f6dd4025816340c99865c1,21,ble_packet
2025-07-21T12:00:34.542925,013208ded232000000e129f24059586d40697c68c1,21,ble_packet
2025-07-21T12:00:34.546595,01320813e332000000e129f24059586d40697c68c1,21,ble_packet
2025-07-21T12:00:34.551648,01320849f332000000e129f24059586d40697c68c1,21,ble_packet
2025-07-21T12:00:34.555263,01320880033300000064e70341444a6c4098746cc1,21,ble_packet
2025-07-21T12:00:34.562873,013208b6133300000064e70341444a6c4098746cc1,21,ble_packet
2025-07-21T12:00:34.570376,013208eb2333000000a6af0e416b6b6640fe336fc1,21,ble_packet
2025-07-21T12:00:34.576845,013208223433000000a6af0e416b6b6640fe336fc1,21,ble_packet
2025-07-21T12:00:34.584487,013208594433000000c1e51941b4ba5e406d946fc1,21,ble_packet
2025-07-21T12:00:34.589726,0132088e5433000000c1e51941b4ba5e406d946fc1,21,ble_packet
2025-07-21T12:00:34.596742,013208c46433000000c1e51941b4ba5e406d946fc1,21,ble_packet
2025-07-21T12:00:34.601578,013208fa7433000000568423416fbb544046716fc1,21,ble_packet
